{
  "resourceType": "Bundle",
  "id": "EXM124v8-bundle",
  "type": "transaction",
  "entry": [ {
    "resource": {
      "resourceType": "ValueSet",
      "id": "2.16.840.1.113883.3.464.1003.198.12.1014",
      "url": "http://cts.nlm.nih.gov/fhir/ValueSet/2.16.840.1.113883.3.464.1003.198.12.1014",
      "identifier": [ {
        "system": "urn:ietf:rfc:3986",
        "value": "2.16.840.1.113883.3.464.1003.198.12.1014"
      } ],
      "version": "20170504",
      "name": "HysterectomywithNoResidualCervix",
      "title": "Hysterectomy with No Residual Cervix",
      "status": "active",
      "publisher": "NLM",
      "compose": {
        "include": [ {
          "system": "http://www.ama-assn.org/go/cpt",
          "version": "1998",
          "concept": [ {
            "code": "56308",
            "display": "Laparoscopy, surgical; with vaginal hysterectomy with or without removal of tube(s), with or without removal of ovary(s) (laparoscopic assisted vaginal hysterectomy)"
          } ]
        }, {
          "system": "http://www.ama-assn.org/go/cpt",
          "version": "2018",
          "concept": [ {
            "code": "51925",
            "display": "Closure of vesicouterine fistula; with hysterectomy"
          }, {
            "code": "57540",
            "display": "Excision of cervical stump, abdominal approach"
          }, {
            "code": "57545",
            "display": "Excision of cervical stump, abdominal approach; with pelvic floor repair"
          }, {
            "code": "57550",
            "display": "Excision of cervical stump, vaginal approach"
          }, {
            "code": "57555",
            "display": "Excision of cervical stump, vaginal approach; with anterior and/or posterior repair"
          }, {
            "code": "57556",
            "display": "Excision of cervical stump, vaginal approach; with repair of enterocele"
          }, {
            "code": "58150",
            "display": "Total abdominal hysterectomy (corpus and cervix), with or without removal of tube(s), with or without removal of ovary(s)"
          }, {
            "code": "58152",
            "display": "Total abdominal hysterectomy (corpus and cervix), with or without removal of tube(s), with or without removal of ovary(s); with colpo-urethrocystopexy (eg, Marshall-Marchetti-Krantz, Burch)"
          }, {
            "code": "58200",
            "display": "Total abdominal hysterectomy, including partial vaginectomy, with para-aortic and pelvic lymph node sampling, with or without removal of tube(s), with or without removal of ovary(s)"
          }, {
            "code": "58210",
            "display": "Radical abdominal hysterectomy, with bilateral total pelvic lymphadenectomy and para-aortic lymph node sampling (biopsy), with or without removal of tube(s), with or without removal of ovary(s)"
          }, {
            "code": "58240",
            "display": "Pelvic exenteration for gynecologic malignancy, with total abdominal hysterectomy or cervicectomy, with or without removal of tube(s), with or without removal of ovary(s), with removal of bladder and ureteral transplantations, and/or abdominoperineal resection of rectum and colon and colostomy, or any combination thereof"
          }, {
            "code": "58260",
            "display": "Vaginal hysterectomy, for uterus 250 g or less"
          }, {
            "code": "58262",
            "display": "Vaginal hysterectomy, for uterus 250 g or less; with removal of tube(s), and/or ovary(s)"
          }, {
            "code": "58263",
            "display": "Vaginal hysterectomy, for uterus 250 g or less; with removal of tube(s), and/or ovary(s), with repair of enterocele"
          }, {
            "code": "58267",
            "display": "Vaginal hysterectomy, for uterus 250 g or less; with colpo-urethrocystopexy (Marshall-Marchetti-Krantz type, Pereyra type) with or without endoscopic control"
          }, {
            "code": "58270",
            "display": "Vaginal hysterectomy, for uterus 250 g or less; with repair of enterocele"
          }, {
            "code": "58275",
            "display": "Vaginal hysterectomy, with total or partial vaginectomy"
          }, {
            "code": "58280",
            "display": "Vaginal hysterectomy, with total or partial vaginectomy; with repair of enterocele"
          }, {
            "code": "58285",
            "display": "Vaginal hysterectomy, radical (Schauta type operation)"
          }, {
            "code": "58290",
            "display": "Vaginal hysterectomy, for uterus greater than 250 g"
          }, {
            "code": "58291",
            "display": "Vaginal hysterectomy, for uterus greater than 250 g; with removal of tube(s) and/or ovary(s)"
          }, {
            "code": "58292",
            "display": "Vaginal hysterectomy, for uterus greater than 250 g; with removal of tube(s) and/or ovary(s), with repair of enterocele"
          }, {
            "code": "58293",
            "display": "Vaginal hysterectomy, for uterus greater than 250 g; with colpo-urethrocystopexy (Marshall-Marchetti-Krantz type, Pereyra type) with or without endoscopic control"
          }, {
            "code": "58294",
            "display": "Vaginal hysterectomy, for uterus greater than 250 g; with repair of enterocele"
          }, {
            "code": "58548",
            "display": "Laparoscopy, surgical, with radical hysterectomy, with bilateral total pelvic lymphadenectomy and para-aortic lymph node sampling (biopsy), with removal of tube(s) and ovary(s), if performed"
          }, {
            "code": "58550",
            "display": "Laparoscopy, surgical, with vaginal hysterectomy, for uterus 250 g or less"
          }, {
            "code": "58552",
            "display": "Laparoscopy, surgical, with vaginal hysterectomy, for uterus 250 g or less; with removal of tube(s) and/or ovary(s)"
          }, {
            "code": "58553",
            "display": "Laparoscopy, surgical, with vaginal hysterectomy, for uterus greater than 250 g"
          }, {
            "code": "58554",
            "display": "Laparoscopy, surgical, with vaginal hysterectomy, for uterus greater than 250 g; with removal of tube(s) and/or ovary(s)"
          }, {
            "code": "58570",
            "display": "Laparoscopy, surgical, with total hysterectomy, for uterus 250 g or less"
          }, {
            "code": "58571",
            "display": "Laparoscopy, surgical, with total hysterectomy, for uterus 250 g or less; with removal of tube(s) and/or ovary(s)"
          }, {
            "code": "58572",
            "display": "Laparoscopy, surgical, with total hysterectomy, for uterus greater than 250 g"
          }, {
            "code": "58573",
            "display": "Laparoscopy, surgical, with total hysterectomy, for uterus greater than 250 g; with removal of tube(s) and/or ovary(s)"
          }, {
            "code": "58951",
            "display": "Resection (initial) of ovarian, tubal or primary peritoneal malignancy with bilateral salpingo-oophorectomy and omentectomy; with total abdominal hysterectomy, pelvic and limited para-aortic lymphadenectomy"
          }, {
            "code": "58953",
            "display": "Bilateral salpingo-oophorectomy with omentectomy, total abdominal hysterectomy and radical dissection for debulking"
          }, {
            "code": "58954",
            "display": "Bilateral salpingo-oophorectomy with omentectomy, total abdominal hysterectomy and radical dissection for debulking; with pelvic lymphadenectomy and limited para-aortic lymphadenectomy"
          }, {
            "code": "58956",
            "display": "Bilateral salpingo-oophorectomy with total omentectomy, total abdominal hysterectomy for malignancy"
          }, {
            "code": "59135",
            "display": "Surgical treatment of ectopic pregnancy; interstitial, uterine pregnancy requiring total hysterectomy"
          } ]
        }, {
          "system": "http://snomed.info/sct",
          "version": "2017-09",
          "concept": [ {
            "code": "27950001",
            "display": "Total hysterectomy with unilateral removal of ovary (procedure)"
          }, {
            "code": "31545000",
            "display": "Total hysterectomy with unilateral removal of tube (procedure)"
          }, {
            "code": "59750000",
            "display": "Total hysterectomy with unilateral removal of tube and ovary (procedure)"
          } ]
        }, {
          "system": "http://snomed.info/sct",
          "version": "2018-03",
          "concept": [ {
            "code": "112918004",
            "display": "Vaginal hysterectomy with colpo-urethrocystopexy, Marshall-Marchetti-Krantz type (procedure)"
          }, {
            "code": "116140006",
            "display": "Total hysterectomy (procedure)"
          }, {
            "code": "116142003",
            "display": "Radical hysterectomy (procedure)"
          }, {
            "code": "116143008",
            "display": "Total abdominal hysterectomy (procedure)"
          }, {
            "code": "116144002",
            "display": "Total abdominal hysterectomy with bilateral salpingo-oophorectomy (procedure)"
          }, {
            "code": "236888001",
            "display": "Laparoscopic total hysterectomy (procedure)"
          }, {
            "code": "236891001",
            "display": "Laparoscopic radical hysterectomy (procedure)"
          }, {
            "code": "24293001",
            "display": "Excision of cervical stump by abdominal approach (procedure)"
          }, {
            "code": "265056007",
            "display": "Vaginal hysterectomy (procedure)"
          }, {
            "code": "27185000",
            "display": "Vaginal hysterectomy with partial colpectomy and repair of enterocele (procedure)"
          }, {
            "code": "287924009",
            "display": "Excision of cervix stump (procedure)"
          }, {
            "code": "30160001",
            "display": "Vaginal hysterectomy with total colpectomy and repair of enterocele (procedure)"
          }, {
            "code": "307771009",
            "display": "Radical abdominal hysterectomy (procedure)"
          }, {
            "code": "309880009",
            "display": "Vaginal hysterocolpectomy (procedure)"
          }, {
            "code": "35955002",
            "display": "Radical vaginal hysterectomy (procedure)"
          }, {
            "code": "359971002",
            "display": "Ward-Mayo operation for vaginal hysterectomy (procedure)"
          }, {
            "code": "359974005",
            "display": "Tuffier operation for vaginal hysterectomy (procedure)"
          }, {
            "code": "359977003",
            "display": "Mayo operation for vaginal hysterectomy (procedure)"
          }, {
            "code": "359983000",
            "display": "Heaney operation for vaginal hysterectomy (procedure)"
          }, {
            "code": "361222003",
            "display": "Wertheim-Meigs abdominal hysterectomy (procedure)"
          }, {
            "code": "361223008",
            "display": "Wertheim operation (procedure)"
          }, {
            "code": "413145007",
            "display": "Vaginal hysterectomy with conservation of ovaries (procedure)"
          }, {
            "code": "414575003",
            "display": "Laparoscopic total abdominal hysterectomy and bilateral salpingo-oophorectomy (procedure)"
          }, {
            "code": "41566006",
            "display": "Excision of cervical stump by vaginal approach (procedure)"
          }, {
            "code": "43791001",
            "display": "Vaginal hysterectomy with total colpectomy (procedure)"
          }, {
            "code": "441820006",
            "display": "Laparoscopy assisted vaginal hysterectomy with bilateral salpingo-oophorectomy (procedure)"
          }, {
            "code": "446446002",
            "display": "Total abdominal hysterectomy and removal of vaginal cuff (procedure)"
          }, {
            "code": "446679008",
            "display": "Total laparoscopic excision of uterus by abdominal approach (procedure)"
          }, {
            "code": "447771005",
            "display": "Abdominal hysterectomy and excision of periuterine tissue (procedure)"
          }, {
            "code": "448539002",
            "display": "Vaginal hysterectomy and excision of periuterine tissue (procedure)"
          }, {
            "code": "54490004",
            "display": "Vaginal hysterectomy with repair of enterocele (procedure)"
          }, {
            "code": "63516002",
            "display": "Vaginal hysterectomy with colpo-urethrocystopexy, Pereyra type (procedure)"
          }, {
            "code": "708877008",
            "display": "Laparoscopic total hysterectomy using robotic assistance (procedure)"
          }, {
            "code": "708878003",
            "display": "Laparoscopic radical hysterectomy using robotic assistance (procedure)"
          }, {
            "code": "75835007",
            "display": "Laparoscopic-assisted vaginal hysterectomy (procedure)"
          }, {
            "code": "77902002",
            "display": "Vaginal hysterectomy with partial colpectomy (procedure)"
          }, {
            "code": "86477000",
            "display": "Total hysterectomy with removal of both tubes and ovaries (procedure)"
          }, {
            "code": "88144003",
            "display": "Removal of ectopic interstitial uterine pregnancy requiring total hysterectomy (procedure)"
          } ]
        } ]
      }
    },
    "request": {
      "method": "PUT",
      "url": "ValueSet/2.16.840.1.113883.3.464.1003.198.12.1014"
    }
  }, {
    "resource": {
      "resourceType": "ValueSet",
      "id": "2.16.840.1.113883.3.464.1003.108.12.1017",
      "url": "http://cts.nlm.nih.gov/fhir/ValueSet/2.16.840.1.113883.3.464.1003.108.12.1017",
      "identifier": [ {
        "system": "urn:ietf:rfc:3986",
        "value": "2.16.840.1.113883.3.464.1003.108.12.1017"
      } ],
      "version": "20170504",
      "name": "PapTest",
      "title": "Pap Test",
      "status": "active",
      "publisher": "NLM",
      "compose": {
        "include": [ {
          "system": "http://loinc.org",
          "version": "2.64",
          "concept": [ {
            "code": "10524-7",
            "display": "Microscopic observation [Identifier] in Cervix by Cyto stain"
          }, {
            "code": "18500-9",
            "display": "Microscopic observation [Identifier] in Cervix by Cyto stain.thin prep"
          }, {
            "code": "19762-4",
            "display": "General categories [Interpretation] of Cervical or vaginal smear or scraping by Cyto stain"
          }, {
            "code": "19764-0",
            "display": "Statement of adequacy [Interpretation] of Cervical or vaginal smear or scraping by Cyto stain"
          }, {
            "code": "19765-7",
            "display": "Microscopic observation [Identifier] in Cervical or vaginal smear or scraping by Cyto stain"
          }, {
            "code": "19766-5",
            "display": "Microscopic observation [Identifier] in Cervical or vaginal smear or scraping by Cyto stain Narrative"
          }, {
            "code": "19774-9",
            "display": "Cytology study comment Cervical or vaginal smear or scraping Cyto stain"
          }, {
            "code": "33717-0",
            "display": "Cytology Cervical or vaginal smear or scraping study"
          }, {
            "code": "47527-7",
            "display": "Cytology report of Cervical or vaginal smear or scraping Cyto stain.thin prep"
          }, {
            "code": "47528-5",
            "display": "Cytology report of Cervical or vaginal smear or scraping Cyto stain"
          } ]
        } ]
      }
    },
    "request": {
      "method": "PUT",
      "url": "ValueSet/2.16.840.1.113883.3.464.1003.108.12.1017"
    }
  }, {
    "resource": {
      "resourceType": "ValueSet",
      "id": "2.16.840.1.113883.3.117.1.7.1.292",
      "url": "http://cts.nlm.nih.gov/fhir/ValueSet/2.16.840.1.113883.3.117.1.7.1.292",
      "title": "Emergency Department Visit",
      "status": "active",
      "publisher": "The Joint Commission",
      "compose": {
        "include": [ {
          "system": "http://snomed.info/sct",
          "version": "2019-03",
          "concept": [ {
            "code": "4525004",
            "display": "Emergency department patient visit (procedure)"
          } ]
        } ]
      }
    },
    "request": {
      "method": "PUT",
      "url": "ValueSet/2.16.840.1.113883.3.117.1.7.1.292"
    }
  }, {
    "resource": {
      "resourceType": "ValueSet",
      "id": "2.16.840.1.113762.1.4.1111.143",
      "url": "http://cts.nlm.nih.gov/fhir/ValueSet/2.16.840.1.113762.1.4.1111.143",
      "title": "Observation Services",
      "status": "active",
      "publisher": "The Joint Commission",
      "compose": {
        "include": [ {
          "system": "http://snomed.info/sct",
          "version": "2019-09",
          "concept": [ {
            "code": "448851000124103",
            "display": "Hospital admission from observation unit (procedure)"
          }, {
            "code": "448951000124107",
            "display": "Admission to observation unit (procedure)"
          }, {
            "code": "76464004",
            "display": "Hospital admission, for observation (procedure)"
          } ]
        } ]
      }
    },
    "request": {
      "method": "PUT",
      "url": "ValueSet/2.16.840.1.113762.1.4.1111.143"
    }
  }, {
    "resource": {
      "resourceType": "Patient",
      "id": "numer-EXM124",
      "meta": {
        "profile": [ "http://hl7.org/fhir/us/core/StructureDefinition/us-core-patient" ]
      },
      "extension": [ {
        "url": "http://hl7.org/fhir/us/core/StructureDefinition/us-core-race",
        "extension": [ {
          "url": "ombCategory",
          "valueCoding": {
            "system": "urn:oid:2.16.840.1.113883.6.238",
            "code": "2028-9",
            "display": "Asian"
          }
        } ]
      }, {
        "url": "http://hl7.org/fhir/us/core/StructureDefinition/us-core-ethnicity",
        "extension": [ {
          "url": "ombCategory",
          "valueCoding": {
            "system": "urn:oid:2.16.840.1.113883.6.238",
            "code": "2135-2",
            "display": "Hispanic or Latino"
          }
        } ]
      } ],
      "identifier": [ {
        "use": "usual",
        "type": {
          "coding": [ {
            "system": "http://terminology.hl7.org/CodeSystem/v2-0203",
            "code": "MR",
            "display": "Medical Record Number"
          } ]
        },
        "system": "http://hospital.smarthealthit.org",
        "value": "999999995"
      } ],
      "name": [ {
        "family": "Brigand",
        "given": [ "Melanie" ]
      } ],
      "gender": "female",
      "birthDate": "1995-01-01"
    },
    "request": {
      "method": "PUT",
      "url": "Patient/numer-EXM124"
    }
  }, {
    "resource": {
      "resourceType": "Library",
      "id": "AdultOutpatientEncounters-1.1.000",
      "text": {
        "status": "generated",
        "div": "<div xmlns=\"http://www.w3.org/1999/xhtml\"><table class=\"grid dict\"><tr><th scope=\"row\"><b>Id: </b></th><td style=\"padding-left: 25px; padding-right: 25px;\">Library/library-adult-outpatient-encounters-FHIR</td></tr><tr><th scope=\"row\"><b>Type: </b></th><td style=\"padding-right: 25px;\"><span><span><span style=\"padding-left: 25px;\"><b>system: </b><span>http://hl7.org/fhir/library-type</span><br/></span><span style=\"padding-left: 25px;\"><b>code: </b><span>logic-library</span></span></span></span></td></tr><tr style=\"vertical-align: top;\"><th rowspan=\"1\" scope=\"row\"><b>Identifier: </b></th><td style=\"padding-left: 25px; padding-right: 25px;\"><b>system: </b><span>http://example.org/fhir/cqi/ecqm/Library/Identifier</span><br/><b>value: </b><span>AdultOutpatientEncounters_FHIR</span></td></tr><tr><th scope=\"row\"><b>Version: </b></th><td style=\"padding-left: 25px; padding-right: 25px;\">1.1.000</td></tr><tr><th scope=\"row\"><b>Title: </b></th><td style=\"padding-left: 25px; padding-right: 25px;\">Adult Outpatient Encounters Common Library</td></tr><tr><th scope=\"row\"><b>Status: </b></th><td style=\"padding-left: 25px; padding-right: 25px;\">active</td></tr><tr><th scope=\"row\"><b>Description: </b></th><td style=\"padding-left: 25px; padding-right: 25px;\">This library is used as an example in the FHIR Quality Measure Implementation Guide</td></tr><tr style=\"vertical-align: top;\"><th rowspan=\"1\" scope=\"row\"><b>Related: </b></th><td style=\"padding-left: 25px; padding-right: 25px;\"><p style=\"margin-bottom: 5px;\"><b>type: </b><span>depends-on</span></p><p style=\"margin-bottom: 5px;\"><b>Resource: </b><br/><span><span style=\"padding-left: 25px;\"><b>reference: </b><span>Library/library-fhir-helpers</span></span></span></p></td></tr><tr style=\"vertical-align: top;\"><th rowspan=\"5\" scope=\"row\"><b>Data Requirements: </b></th><td style=\"padding-left: 25px; padding-right: 25px;\"><div><p style=\"margin-bottom: 5px;\"><b>type: </b><span>Encounter</span></p><p style=\"margin-bottom: 5px;\"><b>code filter:</b><br/><span style=\"padding-left: 25px;\"><b>path: </b><span>type</span></span><br/><span style=\"padding-left: 25px;\"><b>valueset: </b><span>http://cts.nlm.nih.gov/fhir/ValueSet/2.16.840.1.113883.3.464.1003.101.12.1001</span></span></p></div></td></tr><tr style=\"vertical-align: top;\"><td style=\"padding-left: 25px; padding-right: 25px;\"><div><p style=\"margin-bottom: 5px;\"><b>type: </b><span>Encounter</span></p><p style=\"margin-bottom: 5px;\"><b>code filter:</b><br/><span style=\"padding-left: 25px;\"><b>path: </b><span>type</span></span><br/><span style=\"padding-left: 25px;\"><b>valueset: </b><span>http://cts.nlm.nih.gov/fhir/ValueSet/2.16.840.1.113883.3.526.3.1240</span></span></p></div></td></tr><tr style=\"vertical-align: top;\"><td style=\"padding-left: 25px; padding-right: 25px;\"><div><p style=\"margin-bottom: 5px;\"><b>type: </b><span>Encounter</span></p><p style=\"margin-bottom: 5px;\"><b>code filter:</b><br/><span style=\"padding-left: 25px;\"><b>path: </b><span>type</span></span><br/><span style=\"padding-left: 25px;\"><b>valueset: </b><span>http://cts.nlm.nih.gov/fhir/ValueSet/2.16.840.1.113883.3.464.1003.101.12.1025</span></span></p></div></td></tr><tr style=\"vertical-align: top;\"><td style=\"padding-left: 25px; padding-right: 25px;\"><div><p style=\"margin-bottom: 5px;\"><b>type: </b><span>Encounter</span></p><p style=\"margin-bottom: 5px;\"><b>code filter:</b><br/><span style=\"padding-left: 25px;\"><b>path: </b><span>type</span></span><br/><span style=\"padding-left: 25px;\"><b>valueset: </b><span>http://cts.nlm.nih.gov/fhir/ValueSet/2.16.840.1.113883.3.464.1003.101.12.1023</span></span></p></div></td></tr><tr style=\"vertical-align: top;\"><td style=\"padding-left: 25px; padding-right: 25px;\"><div><p style=\"margin-bottom: 5px;\"><b>type: </b><span>Encounter</span></p><p style=\"margin-bottom: 5px;\"><b>code filter:</b><br/><span style=\"padding-left: 25px;\"><b>path: </b><span>type</span></span><br/><span style=\"padding-left: 25px;\"><b>valueset: </b><span>http://cts.nlm.nih.gov/fhir/ValueSet/2.16.840.1.113883.3.464.1003.101.12.1016</span></span></p></div></td></tr>                                                    <!-- Filter down to human readable content --><tr style=\"vertical-align: top;\"><th scope=\"row\"><b>Content: </b></th><td style=\"padding-left: 25px; padding-right: 25px;\"><b>type: </b><span>text/cql</span></td></tr><tr><td colspan=\"2\" style=\"padding-left: 25px; padding-right: 25px;\"><pre><code class=\"language-cql\">library AdultOutpatientEncounters_FHIR version '1.1.000'\r\n\r\n/*\r\nThis example is a work in progress and should not be considered a final specification\r\nor recommendation for guidance. This example will help guide and direct the process\r\nof finding conventions and usage patterns that meet the needs of the various stakeholders\r\nin the measure development community.\r\n*/\r\n\r\nusing FHIR version '3.0.0'\r\n\r\ninclude FHIRHelpers version '3.0.0' called FHIRHelpers\r\n\r\nvalueset &quot;Office Visit&quot;: 'http://cts.nlm.nih.gov/fhir/ValueSet/2.16.840.1.113883.3.464.1003.101.12.1001'\r\nvalueset &quot;Annual Wellness Visit&quot;: 'http://cts.nlm.nih.gov/fhir/ValueSet/2.16.840.1.113883.3.526.3.1240'\r\nvalueset &quot;Preventive Care Services - Established Office Visit, 18 and Up&quot;: 'http://cts.nlm.nih.gov/fhir/ValueSet/2.16.840.1.113883.3.464.1003.101.12.1025'\r\nvalueset &quot;Preventive Care Services-Initial Office Visit, 18 and Up&quot;: 'http://cts.nlm.nih.gov/fhir/ValueSet/2.16.840.1.113883.3.464.1003.101.12.1023'\r\nvalueset &quot;Home Healthcare Services&quot;: 'http://cts.nlm.nih.gov/fhir/ValueSet/2.16.840.1.113883.3.464.1003.101.12.1016'\r\n\r\ncontext Patient\r\n\r\ndefine function &quot;Qualifying Encounters&quot;(MeasurementPeriod Interval&lt;DateTime&gt;):\r\n  ( [Encounter: &quot;Office Visit&quot;]\r\n    union [Encounter: &quot;Annual Wellness Visit&quot;]\r\n    union [Encounter: &quot;Preventive Care Services - Established Office Visit, 18 and Up&quot;]\r\n    union [Encounter: &quot;Preventive Care Services-Initial Office Visit, 18 and Up&quot;]\r\n    union [Encounter: &quot;Home Healthcare Services&quot;] ) ValidEncounter\r\n    where ValidEncounter.period during day of MeasurementPeriod\r\n      and ValidEncounter.status = 'finished'</code></pre>\r\n                    \r\n                    \r\n                </td>\r\n            </tr>\r\n        \r\n        \r\n            \r\n            \r\n        \r\n    </table>\r\n</div>"
      },
      "contained": [ {
        "resourceType": "Device",
        "id": "cqf-tooling",
        "meta": {
          "profile": [ "http://hl7.org/fhir/us/cqfmeasures/StructureDefinition/device-softwaresystem-cqfm" ]
        },
        "type": {
          "coding": [ {
            "system": "http://hl7.org/fhir/us/cqfmeasures/CodeSystem/software-system-type",
            "code": "tooling"
          } ]
        }
      } ],
      "extension": [ {
        "url": "http://hl7.org/fhir/us/cqfmeasures/StructureDefinition/cqfm-softwaresystem",
        "valueReference": {
          "reference": "#cqf-tooling"
        }
      } ],
      "url": "http://fhir.org/guides/cqframework/Library/AdultOutpatientEncounters",
      "identifier": [ {
        "use": "official",
        "system": "http://example.org/fhir/cqi/ecqm/Library/Identifier",
        "value": "AdultOutpatientEncounters"
      } ],
      "version": "1.1.000",
      "name": "AdultOutpatientEncounters",
      "title": "Adult Outpatient Encounters Common Library",
      "status": "active",
      "experimental": true,
      "type": {
        "coding": [ {
          "system": "http://hl7.org/fhir/library-type",
          "code": "logic-library"
        } ]
      },
      "date": "2019-09-03",
      "publisher": "Health Level 7 International - Clinical Quality Information Work Group",
      "contact": [ {
        "telecom": [ {
          "system": "url",
          "value": "http://www.hl7.org/Special/committees/cqi/index.cfm"
        } ]
      } ],
      "description": "This library is used as an example in the FHIR Quality Measure Implementation Guide",
      "approvalDate": "2019-08-03",
      "lastReviewDate": "2019-08-03",
      "relatedArtifact": [ {
        "type": "depends-on",
        "resource": "http://hl7.org/fhir/Library/FHIR-ModelInfo|4.0.0"
      }, {
        "type": "depends-on",
        "resource": "http://hl7.org/fhir/Library/FHIRHelpers|4.0.0"
      }, {
        "type": "depends-on",
        "resource": "http://cts.nlm.nih.gov/fhir/ValueSet/2.16.840.1.113883.3.464.1003.101.12.1001"
      }, {
        "type": "depends-on",
        "resource": "http://cts.nlm.nih.gov/fhir/ValueSet/2.16.840.1.113883.3.526.3.1240"
      }, {
        "type": "depends-on",
        "resource": "http://cts.nlm.nih.gov/fhir/ValueSet/2.16.840.1.113883.3.464.1003.101.12.1025"
      }, {
        "type": "depends-on",
        "resource": "http://cts.nlm.nih.gov/fhir/ValueSet/2.16.840.1.113883.3.464.1003.101.12.1023"
      }, {
        "type": "depends-on",
        "resource": "http://cts.nlm.nih.gov/fhir/ValueSet/2.16.840.1.113883.3.464.1003.101.12.1016"
      } ],
      "parameter": [ {
        "name": "Measurement Period",
        "use": "in",
        "min": 0,
        "max": "1",
        "type": "Period"
      }, {
        "name": "Patient",
        "use": "out",
        "min": 0,
        "max": "1",
        "type": "Patient"
      } ],
      "dataRequirement": [ {
        "type": "Encounter",
        "codeFilter": [ {
          "path": "type",
          "valueSet": "http://cts.nlm.nih.gov/fhir/ValueSet/2.16.840.1.113883.3.464.1003.101.12.1001"
        } ]
      }, {
        "type": "Encounter",
        "codeFilter": [ {
          "path": "type",
          "valueSet": "http://cts.nlm.nih.gov/fhir/ValueSet/2.16.840.1.113883.3.526.3.1240"
        } ]
      }, {
        "type": "Encounter",
        "codeFilter": [ {
          "path": "type",
          "valueSet": "http://cts.nlm.nih.gov/fhir/ValueSet/2.16.840.1.113883.3.464.1003.101.12.1025"
        } ]
      }, {
        "type": "Encounter",
        "codeFilter": [ {
          "path": "type",
          "valueSet": "http://cts.nlm.nih.gov/fhir/ValueSet/2.16.840.1.113883.3.464.1003.101.12.1023"
        } ]
      }, {
        "type": "Encounter",
        "codeFilter": [ {
          "path": "type",
          "valueSet": "http://cts.nlm.nih.gov/fhir/ValueSet/2.16.840.1.113883.3.464.1003.101.12.1016"
        } ]
      } ],
      "content": [ {
        "contentType": "text/cql",
        "data": ""
      }, {
        "contentType": "application/elm+xml",
        "data": ""
      } ]
    },
    "request": {
      "method": "PUT",
      "url": "Library/AdultOutpatientEncounters-1.1.000"
    }
  }, {
    "resource": {
      "resourceType": "ValueSet",
      "id": "2.16.840.1.113883.3.464.1003.110.12.1059",
      "url": "http://cts.nlm.nih.gov/fhir/ValueSet/2.16.840.1.113883.3.464.1003.110.12.1059",
      "identifier": [ {
        "system": "urn:ietf:rfc:3986",
        "value": "2.16.840.1.113883.3.464.1003.110.12.1059"
      } ],
      "version": "20170504",
      "name": "HPVTest",
      "title": "HPV Test",
      "status": "active",
      "publisher": "NLM",
      "compose": {
        "include": [ {
          "system": "http://loinc.org",
          "version": "2.56",
          "concept": [ {
            "code": "75406-9",
            "display": "Human papilloma virus 16 and 18+45 E6+E7 mRNA [Presence] in Cervix by Probe with amplification"
          } ]
        }, {
          "system": "http://loinc.org",
          "version": "2.64",
          "concept": [ {
            "code": "21440-3",
            "display": "Human papilloma virus 16+18+31+33+35+45+51+52+56 DNA [Presence] in Cervix by Probe"
          }, {
            "code": "30167-1",
            "display": "Human papilloma virus 16+18+31+33+35+39+45+51+52+56+58+59+68 DNA [Presence] in Cervix by Probe with signal amplification"
          }, {
            "code": "38372-9",
            "display": "Human papilloma virus 6+11+16+18+31+33+35+39+42+43+44+45+51+52+56+58+59+68 DNA [Presence] in Cervix by Probe with signal amplification"
          }, {
            "code": "59263-4",
            "display": "Human papilloma virus 16 DNA [Presence] in Cervix by Probe with signal amplification"
          }, {
            "code": "59264-2",
            "display": "Human papilloma virus 18 DNA [Presence] in Cervix by Probe with signal amplification"
          }, {
            "code": "59420-0",
            "display": "Human papilloma virus 16+18+31+33+35+39+45+51+52+56+58+59+66+68 DNA [Presence] in Cervix by Probe with signal amplification"
          }, {
            "code": "69002-4",
            "display": "Human papilloma virus E6+E7 mRNA [Presence] in Cervix by NAA with probe detection"
          }, {
            "code": "71431-1",
            "display": "Human papilloma virus 31+33+35+39+45+51+52+56+58+59+66+68 DNA [Presence] in Cervix by NAA with probe detection"
          }, {
            "code": "75694-0",
            "display": "Human papilloma virus 18+45 E6+E7 mRNA [Presence] in Cervix by NAA with probe detection"
          }, {
            "code": "77379-6",
            "display": "Human papilloma virus 16 and 18 and 31+33+35+39+45+51+52+56+58+59+66+68 DNA [Interpretation] in Cervix"
          }, {
            "code": "77399-4",
            "display": "Human papilloma virus 16 DNA [Presence] in Cervix by NAA with probe detection"
          }, {
            "code": "77400-0",
            "display": "Human papilloma virus 18 DNA [Presence] in Cervix by NAA with probe detection"
          }, {
            "code": "82354-2",
            "display": "Human papilloma virus 16 and 18+45 E6+E7 mRNA [Identifier] in Cervix by NAA with probe detection"
          }, {
            "code": "82456-5",
            "display": "Human papilloma virus 16 E6+E7 mRNA [Presence] in Cervix by NAA with probe detection"
          }, {
            "code": "82675-0",
            "display": "Human papilloma virus 16+18+31+33+35+39+45+51+52+56+58+59+66+68 DNA [Presence] in Cervix by NAA with probe detection"
          } ]
        } ]
      }
    },
    "request": {
      "method": "PUT",
      "url": "ValueSet/2.16.840.1.113883.3.464.1003.110.12.1059"
    }
  }, {
    "resource": {
      "resourceType": "ValueSet",
      "id": "2.16.840.1.113883.3.464.1003.101.12.1001",
      "url": "http://cts.nlm.nih.gov/fhir/ValueSet/2.16.840.1.113883.3.464.1003.101.12.1001",
      "identifier": [ {
        "system": "urn:ietf:rfc:3986",
        "value": "2.16.840.1.113883.3.464.1003.101.12.1001"
      } ],
      "version": "20180310",
      "name": "OfficeVisit",
      "title": "Office Visit",
      "status": "active",
      "publisher": "NLM",
      "compose": {
        "include": [ {
          "system": "http://www.ama-assn.org/go/cpt",
          "version": "2018",
          "concept": [ {
            "code": "99201",
            "display": "Office or other outpatient visit for the evaluation and management of a new patient, which requires these 3 key components: A problem focused history; A problem focused examination; Straightforward medical decision making. Counseling and/or coordination of care with other physicians, other qualified health care professionals, or agencies are provided consistent with the nature of the problem(s) and the patient's and/or family's needs. Usually, the presenting problem(s) are self limited or minor. Typically, 10 minutes are spent face-to-face with the patient and/or family."
          }, {
            "code": "99202",
            "display": "Office or other outpatient visit for the evaluation and management of a new patient, which requires these 3 key components: An expanded problem focused history; An expanded problem focused examination; Straightforward medical decision making. Counseling and/or coordination of care with other physicians, other qualified health care professionals, or agencies are provided consistent with the nature of the problem(s) and the patient's and/or family's needs. Usually, the presenting problem(s) are of low to moderate severity. Typically, 20 minutes are spent face-to-face with the patient and/or family."
          }, {
            "code": "99203",
            "display": "Office or other outpatient visit for the evaluation and management of a new patient, which requires these 3 key components: A detailed history; A detailed examination; Medical decision making of low complexity. Counseling and/or coordination of care with other physicians, other qualified health care professionals, or agencies are provided consistent with the nature of the problem(s) and the patient's and/or family's needs. Usually, the presenting problem(s) are of moderate severity. Typically, 30 minutes are spent face-to-face with the patient and/or family."
          }, {
            "code": "99204",
            "display": "Office or other outpatient visit for the evaluation and management of a new patient, which requires these 3 key components: A comprehensive history; A comprehensive examination; Medical decision making of moderate complexity. Counseling and/or coordination of care with other physicians, other qualified health care professionals, or agencies are provided consistent with the nature of the problem(s) and the patient's and/or family's needs. Usually, the presenting problem(s) are of moderate to high severity. Typically, 45 minutes are spent face-to-face with the patient and/or family."
          }, {
            "code": "99205",
            "display": "Office or other outpatient visit for the evaluation and management of a new patient, which requires these 3 key components: A comprehensive history; A comprehensive examination; Medical decision making of high complexity. Counseling and/or coordination of care with other physicians, other qualified health care professionals, or agencies are provided consistent with the nature of the problem(s) and the patient's and/or family's needs. Usually, the presenting problem(s) are of moderate to high severity. Typically, 60 minutes are spent face-to-face with the patient and/or family."
          }, {
            "code": "99212",
            "display": "Office or other outpatient visit for the evaluation and management of an established patient, which requires at least 2 of these 3 key components: A problem focused history; A problem focused examination; Straightforward medical decision making. Counseling and/or coordination of care with other physicians, other qualified health care professionals, or agencies are provided consistent with the nature of the problem(s) and the patient's and/or family's needs. Usually, the presenting problem(s) are self limited or minor. Typically, 10 minutes are spent face-to-face with the patient and/or family."
          }, {
            "code": "99213",
            "display": "Office or other outpatient visit for the evaluation and management of an established patient, which requires at least 2 of these 3 key components: An expanded problem focused history; An expanded problem focused examination; Medical decision making of low complexity. Counseling and coordination of care with other physicians, other qualified health care professionals, or agencies are provided consistent with the nature of the problem(s) and the patient's and/or family's needs. Usually, the presenting problem(s) are of low to moderate severity. Typically, 15 minutes are spent face-to-face with the patient and/or family."
          }, {
            "code": "99214",
            "display": "Office or other outpatient visit for the evaluation and management of an established patient, which requires at least 2 of these 3 key components: A detailed history; A detailed examination; Medical decision making of moderate complexity. Counseling and/or coordination of care with other physicians, other qualified health care professionals, or agencies are provided consistent with the nature of the problem(s) and the patient's and/or family's needs. Usually, the presenting problem(s) are of moderate to high severity. Typically, 25 minutes are spent face-to-face with the patient and/or family."
          }, {
            "code": "99215",
            "display": "Office or other outpatient visit for the evaluation and management of an established patient, which requires at least 2 of these 3 key components: A comprehensive history; A comprehensive examination; Medical decision making of high complexity. Counseling and/or coordination of care with other physicians, other qualified health care professionals, or agencies are provided consistent with the nature of the problem(s) and the patient's and/or family's needs. Usually, the presenting problem(s) are of moderate to high severity. Typically, 40 minutes are spent face-to-face with the patient and/or family."
          } ]
        }, {
          "system": "http://snomed.info/sct",
          "version": "2018-03",
          "concept": [ {
            "code": "185463005",
            "display": "Visit out of hours (procedure)"
          }, {
            "code": "185464004",
            "display": "Out of hours visit - not night visit (procedure)"
          }, {
            "code": "185465003",
            "display": "Weekend visit (procedure)"
          }, {
            "code": "30346009",
            "display": "Evaluation and management of established outpatient in office or other outpatient facility (procedure)"
          }, {
            "code": "3391000175108",
            "display": "Office visit for pediatric care and assessment (procedure)"
          }, {
            "code": "37894004",
            "display": "Evaluation and management of new outpatient in office or other outpatient facility (procedure)"
          }, {
            "code": "439740005",
            "display": "Postoperative follow-up visit (procedure)"
          } ]
        } ]
      }
    },
    "request": {
      "method": "PUT",
      "url": "ValueSet/2.16.840.1.113883.3.464.1003.101.12.1001"
    }
  }, {
    "resource": {
      "resourceType": "ValueSet",
      "id": "2.16.840.1.113883.3.464.1003.101.12.1023",
      "url": "http://cts.nlm.nih.gov/fhir/ValueSet/2.16.840.1.113883.3.464.1003.101.12.1023",
      "identifier": [ {
        "system": "urn:ietf:rfc:3986",
        "value": "2.16.840.1.113883.3.464.1003.101.12.1023"
      } ],
      "version": "20170504",
      "name": "PreventiveCareServices-InitialOfficeVisit,18andUp",
      "title": "Preventive Care Services-Initial Office Visit, 18 and Up",
      "status": "active",
      "publisher": "NLM",
      "compose": {
        "include": [ {
          "system": "http://www.ama-assn.org/go/cpt",
          "version": "2018",
          "concept": [ {
            "code": "99385",
            "display": "Initial comprehensive preventive medicine evaluation and management of an individual including an age and gender appropriate history, examination, counseling/anticipatory guidance/risk factor reduction interventions, and the ordering of laboratory/diagnostic procedures, new patient; 18-39 years"
          }, {
            "code": "99386",
            "display": "Initial comprehensive preventive medicine evaluation and management of an individual including an age and gender appropriate history, examination, counseling/anticipatory guidance/risk factor reduction interventions, and the ordering of laboratory/diagnostic procedures, new patient; 40-64 years"
          }, {
            "code": "99387",
            "display": "Initial comprehensive preventive medicine evaluation and management of an individual including an age and gender appropriate history, examination, counseling/anticipatory guidance/risk factor reduction interventions, and the ordering of laboratory/diagnostic procedures, new patient; 65 years and older"
          } ]
        } ]
      }
    },
    "request": {
      "method": "PUT",
      "url": "ValueSet/2.16.840.1.113883.3.464.1003.101.12.1023"
    }
  }, {
    "resource": {
      "resourceType": "Library",
      "id": "FHIRHelpers-4.0.0",
      "text": {
        "status": "generated",
        "div": "<div xmlns=\"http://www.w3.org/1999/xhtml\"><table class=\"grid dict\"><tr><th scope=\"row\"><b>Id: </b></th><td style=\"padding-left: 25px; padding-right: 25px;\">library-FHIRHelpers</td></tr><tr><th scope=\"row\"><b>Type: </b></th><td style=\"padding-right: 25px;\"> logic-library </td></tr><tr><th scope=\"row\"><b>Version: </b></th><td style=\"padding-left: 25px; padding-right: 25px;\">4.0.1</td></tr><tr><th scope=\"row\"><b>Status: </b></th><td style=\"padding-left: 25px; padding-right: 25px;\">active</td></tr><tr style=\"vertical-align: top;\"><th scope=\"row\"><b>Content: </b></th><td style=\"padding-left: 25px; padding-right: 25px;\"><b>type: </b><span>text/cql</span></td></tr><tr><td colspan=\"2\" style=\"padding-left: 25px; padding-right: 25px;\"><pre><code class=\"language-cql\">library FHIRHelpers version '4.0.1'\n\nusing FHIR version '4.0.1'\n\ndefine function ToInterval(period FHIR.Period):\n    if period is null then\n        null\n    else\n        Interval[period.&quot;start&quot;.value, period.&quot;end&quot;.value]\n\ndefine function ToQuantity(quantity FHIR.Quantity):\n    if quantity is null then\n        null\n    else\n        System.Quantity { value: quantity.value.value, unit: quantity.unit.value }\n\ndefine function ToInterval(range FHIR.Range):\n    if range is null then\n        null\n    else\n        Interval[ToQuantity(range.low), ToQuantity(range.high)]\n\ndefine function ToCode(coding FHIR.Coding):\n    if coding is null then\n        null\n    else\n        System.Code {\n          code: coding.code.value,\n          system: coding.system.value,\n          version: coding.version.value,\n          display: coding.display.value\n        }\n\ndefine function ToConcept(concept FHIR.CodeableConcept):\n    if concept is null then\n        null\n    else\n        System.Concept {\n            codes: concept.coding C return ToCode(C),\n            display: concept.text.value\n        }\n\n\ndefine function ToString(value AccountStatus): value.value\ndefine function ToString(value ActionCardinalityBehavior): value.value\ndefine function ToString(value ActionConditionKind): value.value\ndefine function ToString(value ActionGroupingBehavior): value.value\ndefine function ToString(value ActionParticipantType): value.value\ndefine function ToString(value ActionPrecheckBehavior): value.value\ndefine function ToString(value ActionRelationshipType): value.value\ndefine function ToString(value ActionRequiredBehavior): value.value\ndefine function ToString(value ActionSelectionBehavior): value.value\ndefine function ToString(value ActivityDefinitionKind): value.value\ndefine function ToString(value ActivityParticipantType): value.value\ndefine function ToString(value AddressType): value.value\ndefine function ToString(value AddressUse): value.value\ndefine function ToString(value AdministrativeGender): value.value\ndefine function ToString(value AdverseEventActuality): value.value\ndefine function ToString(value AggregationMode): value.value\ndefine function ToString(value AllergyIntoleranceCategory): value.value\ndefine function ToString(value AllergyIntoleranceCriticality): value.value\ndefine function ToString(value AllergyIntoleranceSeverity): value.value\ndefine function ToString(value AllergyIntoleranceType): value.value\ndefine function ToString(value AppointmentStatus): value.value\ndefine function ToString(value AssertionDirectionType): value.value\ndefine function ToString(value AssertionOperatorType): value.value\ndefine function ToString(value AssertionResponseTypes): value.value\ndefine function ToString(value AuditEventAction): value.value\ndefine function ToString(value AuditEventAgentNetworkType): value.value\ndefine function ToString(value AuditEventOutcome): value.value\ndefine function ToString(value BindingStrength): value.value\ndefine function ToString(value BiologicallyDerivedProductCategory): value.value\ndefine function ToString(value BiologicallyDerivedProductStatus): value.value\ndefine function ToString(value BiologicallyDerivedProductStorageScale): value.value\ndefine function ToString(value BundleType): value.value\ndefine function ToString(value CapabilityStatementKind): value.value\ndefine function ToString(value CarePlanActivityKind): value.value\ndefine function ToString(value CarePlanActivityStatus): value.value\ndefine function ToString(value CarePlanIntent): value.value\ndefine function ToString(value CarePlanStatus): value.value\ndefine function ToString(value CareTeamStatus): value.value\ndefine function ToString(value CatalogEntryRelationType): value.value\ndefine function ToString(value ChargeItemDefinitionPriceComponentType): value.value\ndefine function ToString(value ChargeItemStatus): value.value\ndefine function ToString(value ClaimResponseStatus): value.value\ndefine function ToString(value ClaimStatus): value.value\ndefine function ToString(value ClinicalImpressionStatus): value.value\ndefine function ToString(value CodeSearchSupport): value.value\ndefine function ToString(value CodeSystemContentMode): value.value\ndefine function ToString(value CodeSystemHierarchyMeaning): value.value\ndefine function ToString(value CommunicationPriority): value.value\ndefine function ToString(value CommunicationRequestStatus): value.value\ndefine function ToString(value CommunicationStatus): value.value\ndefine function ToString(value CompartmentCode): value.value\ndefine function ToString(value CompartmentType): value.value\ndefine function ToString(value CompositionAttestationMode): value.value\ndefine function ToString(value CompositionStatus): value.value\ndefine function ToString(value ConceptMapEquivalence): value.value\ndefine function ToString(value ConceptMapGroupUnmappedMode): value.value\ndefine function ToString(value ConditionalDeleteStatus): value.value\ndefine function ToString(value ConditionalReadStatus): value.value\ndefine function ToString(value ConsentDataMeaning): value.value\ndefine function ToString(value ConsentProvisionType): value.value\ndefine function ToString(value ConsentState): value.value\ndefine function ToString(value ConstraintSeverity): value.value\ndefine function ToString(value ContactPointSystem): value.value\ndefine function ToString(value ContactPointUse): value.value\ndefine function ToString(value ContractPublicationStatus): value.value\ndefine function ToString(value ContractStatus): value.value\ndefine function ToString(value ContributorType): value.value\ndefine function ToString(value CoverageStatus): value.value\ndefine function ToString(value CurrencyCode): value.value\ndefine function ToString(value DayOfWeek): value.value\ndefine function ToString(value DaysOfWeek): value.value\ndefine function ToString(value DetectedIssueSeverity): value.value\ndefine function ToString(value DetectedIssueStatus): value.value\ndefine function ToString(value DeviceMetricCalibrationState): value.value\ndefine function ToString(value DeviceMetricCalibrationType): value.value\ndefine function ToString(value DeviceMetricCategory): value.value\ndefine function ToString(value DeviceMetricColor): value.value\ndefine function ToString(value DeviceMetricOperationalStatus): value.value\ndefine function ToString(value DeviceNameType): value.value\ndefine function ToString(value DeviceRequestStatus): value.value\ndefine function ToString(value DeviceUseStatementStatus): value.value\ndefine function ToString(value DiagnosticReportStatus): value.value\ndefine function ToString(value DiscriminatorType): value.value\ndefine function ToString(value DocumentConfidentiality): value.value\ndefine function ToString(value DocumentMode): value.value\ndefine function ToString(value DocumentReferenceStatus): value.value\ndefine function ToString(value DocumentRelationshipType): value.value\ndefine function ToString(value EligibilityRequestPurpose): value.value\ndefine function ToString(value EligibilityRequestStatus): value.value\ndefine function ToString(value EligibilityResponsePurpose): value.value\ndefine function ToString(value EligibilityResponseStatus): value.value\ndefine function ToString(value EnableWhenBehavior): value.value\ndefine function ToString(value EncounterLocationStatus): value.value\ndefine function ToString(value EncounterStatus): value.value\ndefine function ToString(value EndpointStatus): value.value\ndefine function ToString(value EnrollmentRequestStatus): value.value\ndefine function ToString(value EnrollmentResponseStatus): value.value\ndefine function ToString(value EpisodeOfCareStatus): value.value\ndefine function ToString(value EventCapabilityMode): value.value\ndefine function ToString(value EventTiming): value.value\ndefine function ToString(value EvidenceVariableType): value.value\ndefine function ToString(value ExampleScenarioActorType): value.value\ndefine function ToString(value ExplanationOfBenefitStatus): value.value\ndefine function ToString(value ExposureState): value.value\ndefine function ToString(value ExtensionContextType): value.value\ndefine function ToString(value FHIRAllTypes): value.value\ndefine function ToString(value FHIRDefinedType): value.value\ndefine function ToString(value FHIRDeviceStatus): value.value\ndefine function ToString(value FHIRResourceType): value.value\ndefine function ToString(value FHIRSubstanceStatus): value.value\ndefine function ToString(value FHIRVersion): value.value\ndefine function ToString(value FamilyHistoryStatus): value.value\ndefine function ToString(value FilterOperator): value.value\ndefine function ToString(value FlagStatus): value.value\ndefine function ToString(value GoalLifecycleStatus): value.value\ndefine function ToString(value GraphCompartmentRule): value.value\ndefine function ToString(value GraphCompartmentUse): value.value\ndefine function ToString(value GroupMeasure): value.value\ndefine function ToString(value GroupType): value.value\ndefine function ToString(value GuidanceResponseStatus): value.value\ndefine function ToString(value GuidePageGeneration): value.value\ndefine function ToString(value GuideParameterCode): value.value\ndefine function ToString(value HTTPVerb): value.value\ndefine function ToString(value IdentifierUse): value.value\ndefine function ToString(value IdentityAssuranceLevel): value.value\ndefine function ToString(value ImagingStudyStatus): value.value\ndefine function ToString(value ImmunizationEvaluationStatus): value.value\ndefine function ToString(value ImmunizationStatus): value.value\ndefine function ToString(value InvoicePriceComponentType): value.value\ndefine function ToString(value InvoiceStatus): value.value\ndefine function ToString(value IssueSeverity): value.value\ndefine function ToString(value IssueType): value.value\ndefine function ToString(value LinkType): value.value\ndefine function ToString(value LinkageType): value.value\ndefine function ToString(value ListMode): value.value\ndefine function ToString(value ListStatus): value.value\ndefine function ToString(value LocationMode): value.value\ndefine function ToString(value LocationStatus): value.value\ndefine function ToString(value MeasureReportStatus): value.value\ndefine function ToString(value MeasureReportType): value.value\ndefine function ToString(value MediaStatus): value.value\ndefine function ToString(value MedicationAdministrationStatus): value.value\ndefine function ToString(value MedicationDispenseStatus): value.value\ndefine function ToString(value MedicationKnowledgeStatus): value.value\ndefine function ToString(value MedicationRequestIntent): value.value\ndefine function ToString(value MedicationRequestPriority): value.value\ndefine function ToString(value MedicationRequestStatus): value.value\ndefine function ToString(value MedicationStatementStatus): value.value\ndefine function ToString(value MedicationStatus): value.value\ndefine function ToString(value MessageSignificanceCategory): value.value\ndefine function ToString(value Messageheader_Response_Request): value.value\ndefine function ToString(value MimeType): value.value\ndefine function ToString(value NameUse): value.value\ndefine function ToString(value NamingSystemIdentifierType): value.value\ndefine function ToString(value NamingSystemType): value.value\ndefine function ToString(value NarrativeStatus): value.value\ndefine function ToString(value NoteType): value.value\ndefine function ToString(value NutritiionOrderIntent): value.value\ndefine function ToString(value NutritionOrderStatus): value.value\ndefine function ToString(value ObservationDataType): value.value\ndefine function ToString(value ObservationRangeCategory): value.value\ndefine function ToString(value ObservationStatus): value.value\ndefine function ToString(value OperationKind): value.value\ndefine function ToString(value OperationParameterUse): value.value\ndefine function ToString(value OrientationType): value.value\ndefine function ToString(value ParameterUse): value.value\ndefine function ToString(value ParticipantRequired): value.value\ndefine function ToString(value ParticipantStatus): value.value\ndefine function ToString(value ParticipationStatus): value.value\ndefine function ToString(value PaymentNoticeStatus): value.value\ndefine function ToString(value PaymentReconciliationStatus): value.value\ndefine function ToString(value ProcedureStatus): value.value\ndefine function ToString(value PropertyRepresentation): value.value\ndefine function ToString(value PropertyType): value.value\ndefine function ToString(value ProvenanceEntityRole): value.value\ndefine function ToString(value PublicationStatus): value.value\ndefine function ToString(value QualityType): value.value\ndefine function ToString(value QuantityComparator): value.value\ndefine function ToString(value QuestionnaireItemOperator): value.value\ndefine function ToString(value QuestionnaireItemType): value.value\ndefine function ToString(value QuestionnaireResponseStatus): value.value\ndefine function ToString(value ReferenceHandlingPolicy): value.value\ndefine function ToString(value ReferenceVersionRules): value.value\ndefine function ToString(value ReferredDocumentStatus): value.value\ndefine function ToString(value RelatedArtifactType): value.value\ndefine function ToString(value RemittanceOutcome): value.value\ndefine function ToString(value RepositoryType): value.value\ndefine function ToString(value RequestIntent): value.value\ndefine function ToString(value RequestPriority): value.value\ndefine function ToString(value RequestStatus): value.value\ndefine function ToString(value ResearchElementType): value.value\ndefine function ToString(value ResearchStudyStatus): value.value\ndefine function ToString(value ResearchSubjectStatus): value.value\ndefine function ToString(value ResourceType): value.value\ndefine function ToString(value ResourceVersionPolicy): value.value\ndefine function ToString(value ResponseType): value.value\ndefine function ToString(value RestfulCapabilityMode): value.value\ndefine function ToString(value RiskAssessmentStatus): value.value\ndefine function ToString(value SPDXLicense): value.value\ndefine function ToString(value SearchComparator): value.value\ndefine function ToString(value SearchEntryMode): value.value\ndefine function ToString(value SearchModifierCode): value.value\ndefine function ToString(value SearchParamType): value.value\ndefine function ToString(value SectionMode): value.value\ndefine function ToString(value SequenceType): value.value\ndefine function ToString(value ServiceRequestIntent): value.value\ndefine function ToString(value ServiceRequestPriority): value.value\ndefine function ToString(value ServiceRequestStatus): value.value\ndefine function ToString(value SlicingRules): value.value\ndefine function ToString(value SlotStatus): value.value\ndefine function ToString(value SortDirection): value.value\ndefine function ToString(value SpecimenContainedPreference): value.value\ndefine function ToString(value SpecimenStatus): value.value\ndefine function ToString(value Status): value.value\ndefine function ToString(value StrandType): value.value\ndefine function ToString(value StructureDefinitionKind): value.value\ndefine function ToString(value StructureMapContextType): value.value\ndefine function ToString(value StructureMapGroupTypeMode): value.value\ndefine function ToString(value StructureMapInputMode): value.value\ndefine function ToString(value StructureMapModelMode): value.value\ndefine function ToString(value StructureMapSourceListMode): value.value\ndefine function ToString(value StructureMapTargetListMode): value.value\ndefine function ToString(value StructureMapTransform): value.value\ndefine function ToString(value SubscriptionChannelType): value.value\ndefine function ToString(value SubscriptionStatus): value.value\ndefine function ToString(value SupplyDeliveryStatus): value.value\ndefine function ToString(value SupplyRequestStatus): value.value\ndefine function ToString(value SystemRestfulInteraction): value.value\ndefine function ToString(value TaskIntent): value.value\ndefine function ToString(value TaskPriority): value.value\ndefine function ToString(value TaskStatus): value.value\ndefine function ToString(value TestReportActionResult): value.value\ndefine function ToString(value TestReportParticipantType): value.value\ndefine function ToString(value TestReportResult): value.value\ndefine function ToString(value TestReportStatus): value.value\ndefine function ToString(value TestScriptRequestMethodCode): value.value\ndefine function ToString(value TriggerType): value.value\ndefine function ToString(value TypeDerivationRule): value.value\ndefine function ToString(value TypeRestfulInteraction): value.value\ndefine function ToString(value UDIEntryType): value.value\ndefine function ToString(value UnitsOfTime): value.value\ndefine function ToString(value Use): value.value\ndefine function ToString(value VariableType): value.value\ndefine function ToString(value VisionBase): value.value\ndefine function ToString(value VisionEyes): value.value\ndefine function ToString(value VisionStatus): value.value\ndefine function ToString(value XPathUsageType): value.value\ndefine function ToString(value base64Binary): value.value\ndefine function ToBoolean(value boolean): value.value\ndefine function ToDate(value date): value.value\ndefine function ToDateTime(value dateTime): value.value\ndefine function ToDecimal(value decimal): value.value\ndefine function ToDateTime(value instant): value.value\ndefine function ToInteger(value integer): value.value\ndefine function ToString(value string): value.value\ndefine function ToTime(value time): value.value\ndefine function ToString(value uri): value.value\ndefine function ToString(value xhtml): value.value\n</code></pre>\n                    \n                    \n                </td>\n            </tr>\n        \n    </table>\n</div>"
      },
      "contained": [ {
        "resourceType": "Device",
        "id": "cqf-tooling",
        "meta": {
          "profile": [ "http://hl7.org/fhir/us/cqfmeasures/StructureDefinition/device-softwaresystem-cqfm" ]
        },
        "type": {
          "coding": [ {
            "system": "http://hl7.org/fhir/us/cqfmeasures/CodeSystem/software-system-type",
            "code": "tooling"
          } ]
        }
      } ],
      "extension": [ {
        "url": "http://hl7.org/fhir/us/cqfmeasures/StructureDefinition/cqfm-softwaresystem",
        "valueReference": {
          "reference": "#cqf-tooling"
        }
      } ],
      "url": "http://hl7.org/fhir/Library/FHIRHelpers",
      "version": "4.0.0",
      "name": "FHIRHelpers",
      "status": "active",
      "experimental": true,
      "type": {
        "coding": [ {
          "system": "http://terminology.hl7.org/CodeSystem/library-type",
          "code": "logic-library"
        } ]
      },
      "relatedArtifact": [ {
        "type": "depends-on",
        "resource": "http://hl7.org/fhir/Library/FHIR-ModelInfo|4.0.0"
      } ],
      "content": [ {
        "contentType": "text/cql",
        "data": ""
      }, {
        "contentType": "application/elm+xml",
        "data": ""
      } ]
    },
    "request": {
      "method": "PUT",
      "url": "Library/FHIRHelpers-4.0.0"
    }
  }, {
    "resource": {
      "resourceType": "ValueSet",
      "id": "2.16.840.1.113762.1.4.1",
      "url": "http://cts.nlm.nih.gov/fhir/ValueSet/2.16.840.1.113762.1.4.1",
      "identifier": [ {
        "system": "urn:ietf:rfc:3986",
        "value": "2.16.840.1.113762.1.4.1"
      } ],
      "version": "20150331",
      "name": "ONCAdministrativeSex",
      "title": "ONC Administrative Sex",
      "status": "active",
      "publisher": "NLM",
      "compose": {
        "include": [ {
          "system": "http://hl7.org/fhir/v3/AdministrativeGender",
          "version": "HL7V3.0_2017-07",
          "concept": [ {
            "code": "F",
            "display": "Female"
          }, {
            "code": "M",
            "display": "Male"
          } ]
        } ]
      }
    },
    "request": {
      "method": "PUT",
      "url": "ValueSet/2.16.840.1.113762.1.4.1"
    }
  }, {
    "resource": {
      "resourceType": "ValueSet",
      "id": "2.16.840.1.113883.3.464.1003.101.12.1025",
      "url": "http://cts.nlm.nih.gov/fhir/ValueSet/2.16.840.1.113883.3.464.1003.101.12.1025",
      "identifier": [ {
        "system": "urn:ietf:rfc:3986",
        "value": "2.16.840.1.113883.3.464.1003.101.12.1025"
      } ],
      "version": "20170504",
      "name": "PreventiveCareServices-EstablishedOfficeVisit,18andUp",
      "title": "Preventive Care Services - Established Office Visit, 18 and Up",
      "status": "active",
      "publisher": "NLM",
      "compose": {
        "include": [ {
          "system": "http://www.ama-assn.org/go/cpt",
          "version": "2018",
          "concept": [ {
            "code": "99395",
            "display": "Periodic comprehensive preventive medicine reevaluation and management of an individual including an age and gender appropriate history, examination, counseling/anticipatory guidance/risk factor reduction interventions, and the ordering of laboratory/diagnostic procedures, established patient; 18-39 years"
          }, {
            "code": "99396",
            "display": "Periodic comprehensive preventive medicine reevaluation and management of an individual including an age and gender appropriate history, examination, counseling/anticipatory guidance/risk factor reduction interventions, and the ordering of laboratory/diagnostic procedures, established patient; 40-64 years"
          }, {
            "code": "99397",
            "display": "Periodic comprehensive preventive medicine reevaluation and management of an individual including an age and gender appropriate history, examination, counseling/anticipatory guidance/risk factor reduction interventions, and the ordering of laboratory/diagnostic procedures, established patient; 65 years and older"
          } ]
        } ]
      }
    },
    "request": {
      "method": "PUT",
      "url": "ValueSet/2.16.840.1.113883.3.464.1003.101.12.1025"
    }
  }, {
    "resource": {
      "resourceType": "ValueSet",
      "id": "2.16.840.1.114222.4.11.837",
      "url": "http://cts.nlm.nih.gov/fhir/ValueSet/2.16.840.1.114222.4.11.837",
      "identifier": [ {
        "system": "urn:ietf:rfc:3986",
        "value": "2.16.840.1.114222.4.11.837"
      } ],
      "version": "20121025",
      "name": "Ethnicity",
      "title": "Ethnicity",
      "status": "active",
      "publisher": "NLM",
      "compose": {
        "include": [ {
          "system": "http://www.cdc.gov/phin/resources/vocabulary/index.html",
          "version": "1.2",
          "concept": [ {
            "code": "2135-2",
            "display": "Hispanic or Latino"
          }, {
            "code": "2186-5",
            "display": "Not Hispanic or Latino"
          } ]
        } ]
      }
    },
    "request": {
      "method": "PUT",
      "url": "ValueSet/2.16.840.1.114222.4.11.837"
    }
  }, {
    "resource": {
      "resourceType": "Bundle",
      "id": "tests-Observation-bundle",
      "type": "transaction",
      "entry": [ {
        "resource": {
          "resourceType": "Observation",
          "id": "numer-EXM124-3",
          "meta": {
            "profile": [ "http://hl7.org/fhir/observation" ]
          },
          "status": "final",
          "code": {
            "coding": [ {
              "system": "http://loinc.org",
              "code": "10524-7",
              "display": "Microscopic observation [Identifier] in Cervix by Cyto stain"
            } ]
          },
          "subject": {
            "reference": "Patient/numer-EXM124"
          },
          "effectiveDateTime": "2019-11-01T00:00:00",
          "valueBoolean": true
        },
        "request": {
          "method": "PUT",
          "url": "Observation/numer-EXM124-3"
        }
      } ]
    },
    "request": {
      "method": "PUT",
      "url": "Bundle/tests-Observation-bundle"
    }
  }, {
    "resource": {
      "resourceType": "ValueSet",
      "id": "2.16.840.1.114222.4.11.3591",
      "url": "http://cts.nlm.nih.gov/fhir/ValueSet/2.16.840.1.114222.4.11.3591",
      "identifier": [ {
        "system": "urn:ietf:rfc:3986",
        "value": "2.16.840.1.114222.4.11.3591"
      } ],
      "version": "20180718",
      "name": "Payer",
      "title": "Payer",
      "status": "active",
      "publisher": "NLM",
      "compose": {
        "include": [ {
          "system": "http://www.phdsc.org/standards/pdfs/SourceofPaymentTypologyVersion6FINALSeptember2015.pdf",
          "version": "8.0",
          "concept": [ {
            "code": "1",
            "display": "MEDICARE"
          }, {
            "code": "11",
            "display": "Medicare (Managed Care)"
          }, {
            "code": "111",
            "display": "Medicare HMO"
          }, {
            "code": "112",
            "display": "Medicare PPO"
          }, {
            "code": "113",
            "display": "Medicare POS"
          }, {
            "code": "119",
            "display": "Medicare Managed Care Other"
          }, {
            "code": "12",
            "display": "Medicare (Non-managed Care)"
          }, {
            "code": "121",
            "display": "Medicare FFS"
          }, {
            "code": "122",
            "display": "Medicare Drug Benefit"
          }, {
            "code": "123",
            "display": "Medicare Medical Savings Account (MSA)"
          }, {
            "code": "129",
            "display": "Medicare Non-managed Care Other"
          }, {
            "code": "13",
            "display": "Medicare Hospice"
          }, {
            "code": "14",
            "display": "Dual Eligibility Medicare/Medicaid Organization"
          }, {
            "code": "19",
            "display": "Medicare Other"
          }, {
            "code": "191",
            "display": "Medicare Pharmacy Benefit Manager"
          }, {
            "code": "2",
            "display": "MEDICAID"
          }, {
            "code": "21",
            "display": "Medicaid (Managed Care)"
          }, {
            "code": "211",
            "display": "Medicaid HMO"
          }, {
            "code": "212",
            "display": "Medicaid PPO"
          }, {
            "code": "213",
            "display": "Medicaid PCCM (Primary Care Case Management)"
          }, {
            "code": "219",
            "display": "Medicaid Managed Care Other"
          }, {
            "code": "22",
            "display": "Medicaid (Non-managed Care Plan)"
          }, {
            "code": "23",
            "display": "Medicaid/SCHIP"
          }, {
            "code": "25",
            "display": "Medicaid - Out of State"
          }, {
            "code": "26",
            "display": "Medicaid -- Long Term Care"
          }, {
            "code": "29",
            "display": "Medicaid Other"
          }, {
            "code": "291",
            "display": "Medicaid Pharmacy Benefit Manager"
          }, {
            "code": "299",
            "display": "Medicaid - Dental"
          }, {
            "code": "3",
            "display": "OTHER GOVERNMENT (Federal/State/Local) (excluding Department of Corrections)"
          }, {
            "code": "31",
            "display": "Department of Defense"
          }, {
            "code": "311",
            "display": "TRICARE (CHAMPUS)"
          }, {
            "code": "3111",
            "display": "TRICARE Prime--HMO"
          }, {
            "code": "3112",
            "display": "TRICARE Extra--PPO"
          }, {
            "code": "3113",
            "display": "TRICARE Standard - Fee For Service"
          }, {
            "code": "3114",
            "display": "TRICARE For Life--Medicare Supplement"
          }, {
            "code": "3115",
            "display": "TRICARE Reserve Select"
          }, {
            "code": "3116",
            "display": "Uniformed Services Family Health Plan (USFHP) -- HMO"
          }, {
            "code": "3119",
            "display": "Department of Defense - (other)"
          }, {
            "code": "312",
            "display": "Military Treatment Facility"
          }, {
            "code": "3121",
            "display": "Enrolled Prime--HMO"
          }, {
            "code": "3122",
            "display": "Non-enrolled Space Available"
          }, {
            "code": "3123",
            "display": "TRICARE For Life (TFL)"
          }, {
            "code": "313",
            "display": "Dental --Stand Alone"
          }, {
            "code": "32",
            "display": "Department of Veterans Affairs"
          }, {
            "code": "321",
            "display": "Veteran care--Care provided to Veterans"
          }, {
            "code": "3211",
            "display": "Direct Care--Care provided in VA facilities"
          }, {
            "code": "3212",
            "display": "Indirect Care--Care provided outside VA facilities"
          }, {
            "code": "32121",
            "display": "Fee Basis"
          }, {
            "code": "32122",
            "display": "Foreign Fee/Foreign Medical Program (FMP)"
          }, {
            "code": "32123",
            "display": "Contract Nursing Home/Community Nursing Home"
          }, {
            "code": "32124",
            "display": "State Veterans Home"
          }, {
            "code": "32125",
            "display": "Sharing Agreements"
          }, {
            "code": "32126",
            "display": "Other Federal Agency"
          }, {
            "code": "32127",
            "display": "Dental Care"
          }, {
            "code": "32128",
            "display": "Vision Care"
          }, {
            "code": "322",
            "display": "Non-veteran care"
          }, {
            "code": "3221",
            "display": "Civilian Health and Medical Program for the VA (CHAMPVA)"
          }, {
            "code": "3222",
            "display": "Spina Bifida Health Care Program (SB)"
          }, {
            "code": "3223",
            "display": "Children of Women Vietnam Veterans (CWVV)"
          }, {
            "code": "3229",
            "display": "Other non-veteran care"
          }, {
            "code": "33",
            "display": "Indian Health Service or Tribe"
          }, {
            "code": "331",
            "display": "Indian Health Service -- Regular"
          }, {
            "code": "332",
            "display": "Indian Health Service -- Contract"
          }, {
            "code": "333",
            "display": "Indian Health Service - Managed Care"
          }, {
            "code": "334",
            "display": "Indian Tribe - Sponsored Coverage"
          }, {
            "code": "34",
            "display": "HRSA Program"
          }, {
            "code": "341",
            "display": "Title V (MCH Block Grant)"
          }, {
            "code": "342",
            "display": "Migrant Health Program"
          }, {
            "code": "343",
            "display": "Ryan White Act"
          }, {
            "code": "349",
            "display": "Other"
          }, {
            "code": "35",
            "display": "Black Lung"
          }, {
            "code": "36",
            "display": "State Government"
          }, {
            "code": "361",
            "display": "State SCHIP program (codes for individual states)"
          }, {
            "code": "362",
            "display": "Specific state programs (list/ local code)"
          }, {
            "code": "369",
            "display": "State, not otherwise specified (other state)"
          }, {
            "code": "37",
            "display": "Local Government"
          }, {
            "code": "371",
            "display": "Local - Managed care"
          }, {
            "code": "3711",
            "display": "HMO"
          }, {
            "code": "3712",
            "display": "PPO"
          }, {
            "code": "3713",
            "display": "POS"
          }, {
            "code": "372",
            "display": "FFS/Indemnity"
          }, {
            "code": "379",
            "display": "Local, not otherwise specified (other local, county)"
          }, {
            "code": "38",
            "display": "Other Government (Federal, State, Local not specified)"
          }, {
            "code": "381",
            "display": "Federal, State, Local not specified managed care"
          }, {
            "code": "3811",
            "display": "Federal, State, Local not specified - HMO"
          }, {
            "code": "3812",
            "display": "Federal, State, Local not specified - PPO"
          }, {
            "code": "3813",
            "display": "Federal, State, Local not specified - POS"
          }, {
            "code": "3819",
            "display": "Federal, State, Local not specified - not specified managed care"
          }, {
            "code": "382",
            "display": "Federal, State, Local not specified - FFS"
          }, {
            "code": "389",
            "display": "Federal, State, Local not specified - Other"
          }, {
            "code": "39",
            "display": "Other Federal"
          }, {
            "code": "391",
            "display": "Federal Employee Health Plan - Use when known"
          }, {
            "code": "4",
            "display": "DEPARTMENTS OF CORRECTIONS"
          }, {
            "code": "41",
            "display": "Corrections Federal"
          }, {
            "code": "42",
            "display": "Corrections State"
          }, {
            "code": "43",
            "display": "Corrections Local"
          }, {
            "code": "44",
            "display": "Corrections Unknown Level"
          }, {
            "code": "5",
            "display": "PRIVATE HEALTH INSURANCE"
          }, {
            "code": "51",
            "display": "Managed Care (Private)"
          }, {
            "code": "511",
            "display": "Commercial Managed Care - HMO"
          }, {
            "code": "512",
            "display": "Commercial Managed Care - PPO"
          }, {
            "code": "513",
            "display": "Commercial Managed Care - POS"
          }, {
            "code": "514",
            "display": "Exclusive Provider Organization"
          }, {
            "code": "515",
            "display": "Gatekeeper PPO (GPPO)"
          }, {
            "code": "516",
            "display": "Commercial Managed Care - Pharmacy Benefit Manager"
          }, {
            "code": "517",
            "display": "Commercial Managed Care - Dental"
          }, {
            "code": "519",
            "display": "Managed Care, Other (non HMO)"
          }, {
            "code": "52",
            "display": "Private Health Insurance - Indemnity"
          }, {
            "code": "521",
            "display": "Commercial Indemnity"
          }, {
            "code": "522",
            "display": "Self-insured (ERISA) Administrative Services Only (ASO) plan"
          }, {
            "code": "523",
            "display": "Medicare supplemental policy (as second payer)"
          }, {
            "code": "524",
            "display": "Indemnity Insurance - Dental"
          }, {
            "code": "529",
            "display": "Private health insurance--other commercial Indemnity"
          }, {
            "code": "53",
            "display": "Managed Care (private) or private health insurance (indemnity), not otherwise specified"
          }, {
            "code": "54",
            "display": "Organized Delivery System"
          }, {
            "code": "55",
            "display": "Small Employer Purchasing Group"
          }, {
            "code": "56",
            "display": "Specialized Stand Alone Plan"
          }, {
            "code": "561",
            "display": "Dental"
          }, {
            "code": "562",
            "display": "Vision"
          }, {
            "code": "59",
            "display": "Other Private Insurance"
          }, {
            "code": "6",
            "display": "BLUE CROSS/BLUE SHIELD"
          }, {
            "code": "61",
            "display": "BC Managed Care"
          }, {
            "code": "611",
            "display": "BC Managed Care -- HMO"
          }, {
            "code": "612",
            "display": "BC Managed Care -- PPO"
          }, {
            "code": "613",
            "display": "BC Managed Care -- POS"
          }, {
            "code": "614",
            "display": "BC Managed Care - Dental"
          }, {
            "code": "619",
            "display": "BC Managed Care -- Other"
          }, {
            "code": "62",
            "display": "BC Insurance Indemnity"
          }, {
            "code": "621",
            "display": "BC Indemnity"
          }, {
            "code": "622",
            "display": "BC Self-insured (ERISA) Administrative Services Only (ASO)Plan"
          }, {
            "code": "623",
            "display": "BC Medicare Supplemental Plan"
          }, {
            "code": "629",
            "display": "BC Indemnity - Dental"
          }, {
            "code": "7",
            "display": "MANAGED CARE, UNSPECIFIED (to be used only if one can't distinguish public from private)"
          }, {
            "code": "71",
            "display": "HMO"
          }, {
            "code": "72",
            "display": "PPO"
          }, {
            "code": "73",
            "display": "POS"
          }, {
            "code": "79",
            "display": "Other Managed Care"
          }, {
            "code": "8",
            "display": "NO PAYMENT from an Organization/Agency/Program/Private Payer Listed"
          }, {
            "code": "81",
            "display": "Self-pay (Includes applicants for insurance and Medicaid applicants)"
          }, {
            "code": "82",
            "display": "No Charge"
          }, {
            "code": "821",
            "display": "Charity"
          }, {
            "code": "822",
            "display": "Professional Courtesy"
          }, {
            "code": "823",
            "display": "Research/Clinical Trial"
          }, {
            "code": "83",
            "display": "Refusal to Pay/Bad Debt"
          }, {
            "code": "84",
            "display": "Hill Burton Free Care"
          }, {
            "code": "85",
            "display": "Research/Donor"
          }, {
            "code": "89",
            "display": "No Payment, Other"
          }, {
            "code": "9",
            "display": "MISCELLANEOUS/OTHER"
          }, {
            "code": "91",
            "display": "Foreign National"
          }, {
            "code": "92",
            "display": "Other (Non-government)"
          }, {
            "code": "93",
            "display": "Disability Insurance"
          }, {
            "code": "94",
            "display": "Long-term Care Insurance"
          }, {
            "code": "95",
            "display": "Worker's Compensation"
          }, {
            "code": "951",
            "display": "Worker's Comp HMO"
          }, {
            "code": "953",
            "display": "Worker's Comp Fee-for-Service"
          }, {
            "code": "954",
            "display": "Worker's Comp Other Managed Care"
          }, {
            "code": "959",
            "display": "Worker's Comp, Other unspecified"
          }, {
            "code": "96",
            "display": "Auto Insurance (includes no fault)"
          }, {
            "code": "97",
            "display": "Legal Liability / Liability Insurance"
          }, {
            "code": "98",
            "display": "Other specified but not otherwise classifiable (includes Hospice - Unspecified plan)"
          }, {
            "code": "99",
            "display": "No Typology Code available for payment source"
          }, {
            "code": "9999",
            "display": "Unavailable / No Payer Specified / Blank"
          } ]
        } ]
      }
    },
    "request": {
      "method": "PUT",
      "url": "ValueSet/2.16.840.1.114222.4.11.3591"
    }
  }, {
    "resource": {
      "resourceType": "Encounter",
      "id": "denom-EXM124-2",
      "meta": {
        "profile": [ "http://hl7.org/fhir/us/core/StructureDefinition/us-core-encounter" ]
      },
      "status": "finished",
      "class": {
        "system": "http://terminology.hl7.org/CodeSystem/v3-ActCode",
        "code": "AMB",
        "display": "ambulatory"
      },
      "type": [ {
        "coding": [ {
          "system": "http://www.ama-assn.org/go/cpt",
          "code": "99201",
          "display": "Office or other outpatient visit for the evaluation and management of a new patient, which requires these 3 key components: A problem focused history; A problem focused examination; Straightforward medical decision making. Counseling and/or coordination of care with other physicians, other qualified health care professionals, or agencies are provided consistent with the nature of the problem(s) and the patient's and/or family's needs. Usually, the presenting problem(s) are self limited or minor. Typically, 10 minutes are spent face-to-face with the patient and/or family."
        } ]
      } ],
      "subject": {
        "reference": "Patient/denom-EXM124"
      },
      "period": {
        "start": "2019-01-01T01:00:00.0",
        "end": "2019-01-02T01:00:00.0"
      }
    },
    "request": {
      "method": "PUT",
      "url": "Encounter/denom-EXM124-2"
    }
  }, {
    "resource": {
      "resourceType": "Observation",
      "id": "denom-EXM124-3",
      "meta": {
        "profile": [ "http://hl7.org/fhir/observation" ]
      },
      "status": "final",
      "code": {
        "coding": [ {
          "system": "http://loinc.org",
          "code": "10524-7",
          "display": "Microscopic observation [Identifier] in Cervix by Cyto stain"
        } ]
      },
      "subject": {
        "reference": "Patient/denom-EXM124"
      },
      "effectiveDateTime": "2019-11-01T00:00:00"
    },
    "request": {
      "method": "PUT",
      "url": "Observation/denom-EXM124-3"
    }
  }, {
    "resource": {
      "resourceType": "Measure",
      "id": "EXM124-8.2.000",
      "meta": {
        "lastUpdated": "2020-01-29T22:38:35.548-07:00",
        "profile": [ "http://hl7.org/fhir/us/cqfmeasures/StructureDefinition/proportion-measure-cqfm" ]
      },
      "text": {
        "status": "generated",
        "div": "<div xmlns=\"http://www.w3.org/1999/xhtml\"><table class=\"grid dict\"><tr style=\"vertical-align: top;\"><th scope=\"row\"><b>Id: </b></th><td style=\"padding-left: 25px; padding-right: 25px;\">Measure/measure-exm124-FHIR4</td></tr><tr style=\"vertical-align: top;\"><th rowspan=\"1\" scope=\"row\"><b>Type: </b></th><td style=\"padding-left: 25px; padding-right: 25px;\"><span><br/><span><span style=\"padding-left: 25px;\"><b>system: </b><span>http://hl7.org/fhir/measure-type</span><br/></span><span style=\"padding-left: 25px;\"><b>code: </b><span>process</span></span></span></span></td></tr><tr style=\"vertical-align: top;\"><th rowspan=\"2\" scope=\"row\"><b>Identifier: </b></th><td style=\"padding-left: 25px; padding-right: 25px;\"><b>system: </b><span>http://hl7.org/fhir/cqi/ecqm/Measure/Identifier/cms</span><br/><b>value: </b><span>130</span></td></tr><tr style=\"vertical-align: top;\"><td style=\"padding-left: 25px; padding-right: 25px;\"><b>system: </b><span>http://hl7.org/fhir/cqi/ecqm/Measure/Identifier/nqf</span><br/><b>value: </b><span>0034</span></td></tr><tr style=\"vertical-align: top;\"><th scope=\"row\"><b>Title: </b></th><td style=\"padding-left: 25px; padding-right: 25px;\">Cervical Cancer Screening</td></tr><tr style=\"vertical-align: top;\"><th scope=\"row\"><b>Status: </b></th><td style=\"padding-left: 25px; padding-right: 25px;\">active</td></tr><tr style=\"vertical-align: top;\"><th scope=\"row\"><b>Description: </b></th><td style=\"padding-left: 25px; padding-right: 25px;\">Percentage of women 21-64 years of age who were screened for cervical cancer using either of the following criteria: &lt;br&gt; * Women age 21-64 who had cervical cytology performed every 3 years &lt;br.* Women age 30-64 who had cervical cytology/human papillomavirus (HPV) co-testing performed every 5 years</td></tr><tr style=\"vertical-align: top;\"><th scope=\"row\"><b>Purpose: </b></th><td style=\"padding-left: 25px; padding-right: 25px;\">Women 23-64 years of age with a visit during the measurement period</td></tr><tr style=\"vertical-align: top;\"><th rowspan=\"1\" scope=\"row\"><b>Use Context: </b></th><td style=\"padding-left: 25px; padding-right: 25px;\"><p style=\"padding-left: 25px; margin-bottom: 5px;\"><b>code: </b><span>program</span></p><p style=\"padding-left: 25px; margin-bottom: 5px;\"><b>value: </b><br/><span><span style=\"padding-left: 25px;\"><b>text: </b><span>eligible-provider</span></span></span></p></td></tr><tr style=\"vertical-align: top;\"><th rowspan=\"1\" scope=\"row\"><b>Topic: </b></th><td style=\"padding-right: 25px;\"><span><br/><span><span style=\"padding-left: 25px;\"><b>system: </b><span>http://loinc.org</span><br/></span><span style=\"padding-left: 25px;\"><b>code: </b><span>57024-2</span><br/></span><span style=\"padding-left: 25px;\"><b>display: </b><span>Health Quality Measure Document</span></span></span></span></td></tr><tr style=\"vertical-align: top;\"><th rowspan=\"1\" scope=\"row\"><b>Contributor: </b></th><td style=\"padding-left: 25px; padding-right: 25px;\"><b><span>author</span>: </b><span>National Committee for Quality Assurance</span></td></tr><tr style=\"vertical-align: top;\"><th rowspan=\"4\" scope=\"row\"><b>Related: </b></th><td style=\"padding-left: 25px; padding-right: 25px;\"><p style=\"margin-bottom: 5px;\"><b>type: </b><span>citation</span></p><p style=\"margin-bottom: 5px;\"><b>citation: </b><br/><span>Howlader, N., Noone, A.M., Krapcho, M., Miller, D., Bishop, K., Altekruse, S.F., Kosary, C.L., Yu, M., Ruhl, J., Tatalovich, Z., Mariotto, A., Lewis, D.R., Chen, H.S., Feuer, E.J., and Cronin, K.A. 2016. &quot;SEER Cancer Statistics Review, 1975-2013.&quot; National Cancer Institute. (December 5, 2016) http://seer.cancer.gov/csr/1975_2013/</span></p></td></tr><tr style=\"vertical-align: top;\"><td style=\"padding-left: 25px; padding-right: 25px;\"><p style=\"margin-bottom: 5px;\"><b>type: </b><span>citation</span></p><p style=\"margin-bottom: 5px;\"><b>citation: </b><br/><span>National Business Group on Health. 2011. &quot;Pathways to Managing Cancer in the Workplace.&quot; (May 8, 2012). http://www.tcyh.org/employers/downloads/Pathways_Managing_Cancer_2011.pdf</span></p></td></tr><tr style=\"vertical-align: top;\"><td style=\"padding-left: 25px; padding-right: 25px;\"><p style=\"margin-bottom: 5px;\"><b>type: </b><span>citation</span></p><p style=\"margin-bottom: 5px;\"><b>citation: </b><br/><span>Feig S. 2011. Comparison of Costs and Benefits of Breast Cancer Screening with Mammography, Ultrasonagraphy, and MRI. Obstetrics and Gynecology Clinics of North America. 38(1):179-96.</span></p></td></tr><tr style=\"vertical-align: top;\"><td style=\"padding-left: 25px; padding-right: 25px;\"><p style=\"margin-bottom: 5px;\"><b>type: </b><span>citation</span></p><p style=\"margin-bottom: 5px;\"><b>citation: </b><br/><span>U.S. Preventive Services Task Force (USPSTF). 2016. &quot;Screening for Breast Cancer: U.S. Preventive Services Task Force Recommendation Statement.&quot; Ann Intern Med. 164(4):279-296. doi:10.7326/M15-2886.</span></p></td></tr><tr style=\"vertical-align: top;\"><th rowspan=\"1\" scope=\"row\"><b>Library: </b></th><td><p style=\"padding-left: 25px; padding-right: 25px;\"><b>reference: </b><span>Library/library-exm124-FHIR4</span></p></td></tr><tr><th scope=\"row\"><b>Disclaimer: </b></th><td style=\"padding-left: 25px; padding-right: 25px;\">The performance Measure is not a clinical guideline and does not establish a standard of medical care, and has not been tested for all potential applications. THE MEASURE AND SPECIFICATIONS ARE PROVIDED &quot;AS IS&quot; WITHOUT WARRANTY OF ANY KIND. &lt;br&gt; Due to technical limitations, registered trademarks are indicated by (R) or [R] and unregistered trademarks are indicated by (TM) or [TM].</td></tr><tr><th scope=\"row\"><b>Scoring: </b></th><td style=\"padding-left: 25px; padding-right: 25px;\"><span><br/><span><span style=\"padding-left: 25px;\"><b>system: </b><span>http://hl7.org/fhir/measure-scoring</span><br/></span><span style=\"padding-left: 25px;\"><b>code: </b><span>proportion</span></span></span></span></td></tr><tr><th scope=\"row\"><b>Rationale: </b></th><td style=\"padding-left: 25px; padding-right: 25px;\">Breast cancer is one of the most common types of cancers, accounting for 15 percent of all new cancer diagnoses in the U.S. (Howlader et al, 2016). In 2013, over 3 million women were estimated to be living with breast cancer in the U.S. and it is estimated that 12 percent of women will be diagnosed with breast cancer at some point during their lifetime (Howlader et al, 2016). &lt;br&gt; While there are other factors that affect a woman's risk of developing breast cancer, advancing age is a primary risk factor. Breast cancer is most frequently diagnosed among women ages 55-64; the median age at diagnosis is 62 years (Howlader et al, 2016). The chance of a woman being diagnosed with breast cancer in a given year increases with age. By age 40, the chances are 1 in 235; by age 50 it becomes 1 in 54; by age 60, it is 1 in 25 (National Business Group on Health, 2011). &lt;br&gt; In the U.S., costs associated with a diagnosis of breast cancer range from $451 to $2,520, factoring in continued testing, multiple office visits and procedures. The total costs related to breast cancer add up to nearly $7 billion per year in the U.S., including $2 billion spent on late-stage treatment (National Business Group on Health, 2011). If breast cancer is detected through mammography screening and diagnosed in its earliest stages, treatment may be less expensive (Feig, 2011).</td></tr><tr><th scope=\"row\"><b>Clinical Recommendation: </b></th><td style=\"padding-left: 25px; padding-right: 25px;\">The U.S. Preventive Services Task Force (USPSTF) recommends biennial screening mammography for women aged 50-74 years (B recommendation). &lt;br&gt; The decision to start screening mammography in women prior to age 50 years should be an individual one. Women who place a higher value on the potential benefit than the potential harms may choose to begin biennial screening between the ages of 40 and 49 years (C recommendation). (USPSTF, 2016) &lt;br&gt; The USPSTF concludes that the current evidence is insufficient to assess the balance of benefits and harms of screening mammography in women aged 75 years or older (I statement). (USPSTF, 2016) &lt;br&gt; The USPSTF concludes that the current evidence is insufficient to assess the benefits and harms of digital breast tomosynthesis (DBT) as a primary screening method for breast cancer (I Statement). (USPSTF, 2016) &lt;br&gt; The USPSTF concludes that the current evidence is insufficient to assess the balance of benefits and harms of adjunctive screening for breast cancer using breast ultrasonography, magnetic resonance imaging, DBT, or other methods in women identified to have dense breasts on an otherwise negative screening mammogram (I statement). (USPSTF, 2016)</td></tr><tr><th scope=\"row\"><b>Guidance: </b></th><td style=\"padding-left: 25px; padding-right: 25px;\">To ensure the measure is only looking for a cervical cytology test only after a woman turns 21 years of age, the youngest age in the initial population is 23. &lt;br&gt; Patient self-report for procedures as well as diagnostic studies should be recorded in 'Procedure, Performed' template or 'Diagnostic Study, Performed' template in QRDA-1. &lt;br&gt; Include only cytology and HPV &quot;co-testing&quot;; in co-testing, both cytology and HPV tests are performed (i.e., the samples are collected and both tests are ordered, regardless of the cytology result) on the same date of service. Do not include reflex testing. In addition, if the medical record indicates the HPV test was performed only after determining the cytology result, this is considered reflex testing and does not meet criteria for the measure.</td></tr><tr style=\"vertical-align: top;\"><th scope=\"row\"><b>Group:</b></th><td><p style=\"padding-left: 25px; padding-right: 25px;\"><b>Identifier:</b><br/><span style=\"padding-left: 25px;\"><b>value: </b><span>group-1</span><br/></span></p></td></tr><tr style=\"vertical-align: top;\"><td colspan=\"2\"><table style=\"margin-bottom: 5px; width: 100%\"><tr style=\"vertical-align: top;\"><th rowspan=\"4\" scope=\"row\" style=\"padding-left: 25px;\"><b>Population:</b></th><td><p style=\"margin-bottom: 5px; padding-left: 25px;\"><b>Identifier:</b><br/><span style=\"padding-left: 25px;\"><b>value: </b><span>initial-population-identifier</span><br/></span></p><p style=\"margin-bottom: 5px; padding-left: 25px;\"><b>criteria: </b><span>Initial Population</span></p></td></tr><tr style=\"vertical-align: top;\"><td><p style=\"margin-bottom: 5px; padding-left: 25px;\"><b>Identifier:</b><br/><span style=\"padding-left: 25px;\"><b>value: </b><span>numerator-identifier</span><br/></span></p><p style=\"margin-bottom: 5px; padding-left: 25px;\"><b>criteria: </b><span>Numerator</span></p></td></tr><tr style=\"vertical-align: top;\"><td><p style=\"margin-bottom: 5px; padding-left: 25px;\"><b>Identifier:</b><br/><span style=\"padding-left: 25px;\"><b>value: </b><span>denominator-identifier</span><br/></span></p><p style=\"margin-bottom: 5px; padding-left: 25px;\"><b>criteria: </b><span>Denominator</span></p></td></tr><tr style=\"vertical-align: top;\"><td><p style=\"margin-bottom: 5px; padding-left: 25px;\"><b>Identifier:</b><br/><span style=\"padding-left: 25px;\"><b>value: </b><span>denominator-exclusions-identifier</span><br/></span></p><p style=\"margin-bottom: 5px; padding-left: 25px;\"><b>criteria: </b><span>Denominator Exclusion</span></p></td></tr></table></td></tr><tr><th rowspan=\"4\" scope=\"row\"><b>Supplemental Data:</b></th><td style=\"padding-left: 25px; padding-right: 25px;\"><p style=\"margin-bottom: 5px;\"><b>Identifier:</b><br/><span style=\"padding-left: 25px;\"><b>value: </b><span>sde-ethnicity</span><br/></span></p><p style=\"margin-bottom: 5px;\"><b>usage: </b><span><span><br/><span><span style=\"padding-left: 25px;\"><b>system: </b><span>http://hl7.org/fhir/measure-data-usage</span><br/></span><span style=\"padding-left: 25px;\"><b>code: </b><span>supplemental-data</span></span></span></span></span></p><p style=\"margin-bottom: 5px;\"><b>criteria: </b><span>SDE Ethnicity</span></p></td></tr><tr><td style=\"padding-left: 25px; padding-right: 25px;\"><p style=\"margin-bottom: 5px;\"><b>Identifier:</b><br/><span style=\"padding-left: 25px;\"><b>value: </b><span>sde-payer</span><br/></span></p><p style=\"margin-bottom: 5px;\"><b>usage: </b><span><span><br/><span><span style=\"padding-left: 25px;\"><b>system: </b><span>http://hl7.org/fhir/measure-data-usage</span><br/></span><span style=\"padding-left: 25px;\"><b>code: </b><span>supplemental-data</span></span></span></span></span></p><p style=\"margin-bottom: 5px;\"><b>criteria: </b><span>SDE Payer</span></p></td></tr><tr><td style=\"padding-left: 25px; padding-right: 25px;\"><p style=\"margin-bottom: 5px;\"><b>Identifier:</b><br/><span style=\"padding-left: 25px;\"><b>value: </b><span>sde-race</span><br/></span></p><p style=\"margin-bottom: 5px;\"><b>usage: </b><span><span><br/><span><span style=\"padding-left: 25px;\"><b>system: </b><span>http://hl7.org/fhir/measure-data-usage</span><br/></span><span style=\"padding-left: 25px;\"><b>code: </b><span>supplemental-data</span></span></span></span></span></p><p style=\"margin-bottom: 5px;\"><b>criteria: </b><span>SDE Race</span></p></td></tr><tr><td style=\"padding-left: 25px; padding-right: 25px;\"><p style=\"margin-bottom: 5px;\"><b>Identifier:</b><br/><span style=\"padding-left: 25px;\"><b>value: </b><span>sde-sex</span><br/></span></p><p style=\"margin-bottom: 5px;\"><b>usage: </b><span><span><br/><span><span style=\"padding-left: 25px;\"><b>system: </b><span>http://hl7.org/fhir/measure-data-usage</span><br/></span><span style=\"padding-left: 25px;\"><b>code: </b><span>supplemental-data</span></span></span></span></span></p><p style=\"margin-bottom: 5px;\"><b>criteria: </b><span>SDE Sex</span></p></td></tr></table></div>"
      },
      "contained": [ {
        "resourceType": "Device",
        "id": "cqf-tooling",
        "meta": {
          "profile": [ "http://hl7.org/fhir/us/cqfmeasures/StructureDefinition/device-softwaresystem-cqfm" ]
        },
        "type": {
          "coding": [ {
            "system": "http://hl7.org/fhir/us/cqfmeasures/CodeSystem/software-system-type",
            "code": "tooling"
          } ]
        }
      } ],
      "extension": [ {
        "url": "http://hl7.org/fhir/us/cqfmeasures/StructureDefinition/cqfm-populationBasis",
        "valueCode": "boolean"
      }, {
        "url": "http://hl7.org/fhir/us/cqfmeasures/StructureDefinition/cqfm-softwaresystem",
        "valueReference": {
          "reference": "#cqf-tooling"
        }
      } ],
      "url": "http://hl7.org/fhir/us/cqfmeasures/Measure/EXM124-8.2.000",
      "identifier": [ {
        "use": "official",
        "system": "http://hl7.org/fhir/cqi/ecqm/Measure/Identifier/cms",
        "value": "124"
      } ],
      "version": "8.2.000",
      "name": "EXM124",
      "title": "Cervical Cancer Screening",
      "status": "active",
      "experimental": true,
      "date": "2018-09-17",
      "publisher": "National Committee for Quality Assurance",
      "contact": [ {
        "telecom": [ {
          "system": "url",
          "value": "http://www.ncqa.org/"
        } ]
      } ],
      "description": "Percentage of women 21-64 years of age who were screened for cervical cancer using either of the following criteria: <br> *  Women age 21-64 who had cervical cytology performed every 3 years <br.*  Women age 30-64 who had cervical cytology/human papillomavirus (HPV) co-testing performed every 5 years ",
      "useContext": [ {
        "code": {
          "code": "program"
        },
        "valueCodeableConcept": {
          "text": "eligible-provider"
        }
      } ],
      "jurisdiction": [ {
        "coding": [ {
          "system": "urn:iso:std:iso:3166",
          "code": "US"
        } ]
      } ],
      "purpose": "Women 23-64 years of age with a visit during the measurement period",
      "copyright": "This Physician Performance Measure (Measure) and related data specifications were developed by the National Committee for Quality Assurance (NCQA). NCQA is not responsible for any use of the Measure. NCQA makes no representations, warranties, or endorsement about the quality of any organization or physician that uses or reports performance measures and NCQA has no liability to anyone who relies on such measures or specifications. NCQA holds a copyright in the Measure. The Measure can be reproduced and distributed, without modification, for noncommercial purposes (eg, use by healthcare providers in connection with their practices) without obtaining approval from NCQA. Commercial use is defined as the sale, licensing, or distribution of the Measure for commercial gain, or incorporation of the Measure into a product or service that is sold, licensed or distributed for commercial gain. All commercial uses or requests for modification must be approved by NCQA and are subject to a license at the discretion of NCQA. (C) 2012-2017 National Committee for Quality Assurance. All Rights Reserved. Limited proprietary coding is contained in the Measure specifications for user convenience. Users of proprietary code sets should obtain all necessary licenses from the owners of the code sets. NCQA disclaims all liability for use or accuracy of any third party codes contained in the specifications. CPT(R) contained in the Measure specifications is copyright 2004-2017 American Medical Association. LOINC(R) copyright 2004-2017 Regenstrief Institute, Inc. This material contains SNOMED Clinical Terms(R) (SNOMED CT[R] ) copyright 2004-2017 International Health Terminology Standards Development Organisation. ICD-10 copyright 2017 World Health Organization. All Rights Reserved.",
      "approvalDate": "2016-01-01",
      "lastReviewDate": "2016-09-01",
      "effectivePeriod": {
        "start": "2019-01-01",
        "end": "2019-12-31"
      },
      "topic": [ {
        "coding": [ {
          "system": "http://loinc.org",
          "code": "57024-2",
          "display": "Health Quality Measure Document"
        } ]
      } ],
      "relatedArtifact": [ {
        "type": "citation",
        "citation": "Howlader, N., Noone, A.M., Krapcho, M., Miller, D., Bishop, K., Altekruse, S.F., Kosary, C.L., Yu, M., Ruhl, J., Tatalovich, Z., Mariotto, A., Lewis, D.R., Chen, H.S., Feuer, E.J., and Cronin, K.A. 2016. \"SEER Cancer Statistics Review, 1975-2013.\" National Cancer Institute. (December 5, 2016) http://seer.cancer.gov/csr/1975_2013/"
      }, {
        "type": "citation",
        "citation": "National Business Group on Health. 2011. \"Pathways to Managing Cancer in the Workplace.\" (May 8, 2012). http://www.tcyh.org/employers/downloads/Pathways_Managing_Cancer_2011.pdf"
      }, {
        "type": "citation",
        "citation": "Feig S. 2011. Comparison of Costs and Benefits of Breast Cancer Screening with Mammography, Ultrasonagraphy, and MRI. Obstetrics and Gynecology Clinics of North America. 38(1):179-96."
      }, {
        "type": "citation",
        "citation": "U.S. Preventive Services Task Force (USPSTF). 2016. \"Screening for Breast Cancer: U.S. Preventive Services Task Force Recommendation Statement.\" Ann Intern Med. 164(4):279-296. doi:10.7326/M15-2886."
      }, {
        "type": "depends-on",
        "resource": "Library/FHIRHelpers-4.0.0"
      }, {
        "type": "depends-on",
        "resource": "Library/Hospice-1.0.000"
      }, {
        "type": "depends-on",
        "resource": "Library/AdultOutpatientEncounters-1.1.000"
      }, {
        "type": "depends-on",
        "resource": "Library/MATGlobalCommonFunctions-4.0.000"
      }, {
        "type": "depends-on",
        "resource": "Library/SupplementalDataElements-1.0.0"
      } ],
      "library": [ "Library/EXM124-8.2.000" ],
      "disclaimer": "The performance Measure is not a clinical guideline and does not establish a standard of medical care, and has not been tested for all potential applications. THE MEASURE AND SPECIFICATIONS ARE PROVIDED \"AS IS\" WITHOUT WARRANTY OF ANY KIND. Due to technical limitations, registered trademarks are indicated by (R) or [R] and unregistered trademarks are indicated by (TM) or [TM].",
      "scoring": {
        "coding": [ {
          "system": "http://hl7.org/fhir/measure-scoring",
          "code": "proportion"
        } ]
      },
      "type": [ {
        "coding": [ {
          "system": "http://hl7.org/fhir/measure-type",
          "code": "process"
        } ]
      } ],
      "rationale": "Breast cancer is one of the most common types of cancers, accounting for 15 percent of all new cancer diagnoses in the U.S. (Howlader et al, 2016). In 2013, over 3 million women were estimated to be living with breast cancer in the U.S. and it is estimated that 12 percent of women will be diagnosed with breast cancer at some point during their lifetime (Howlader et al, 2016). <br> While there are other factors that affect a woman's risk of developing breast cancer, advancing age is a primary risk factor. Breast cancer is most frequently diagnosed among women ages 55-64; the median age at diagnosis is 62 years (Howlader et al, 2016). The chance of a woman being diagnosed with breast cancer in a given year increases with age. By age 40, the chances are 1 in 235; by age 50 it becomes 1 in 54; by age 60, it is 1 in 25 (National Business Group on Health, 2011). <br> In the U.S., costs associated with a diagnosis of breast cancer range from $451 to $2,520, factoring in continued testing, multiple office visits and procedures. The total costs related to breast cancer add up to nearly $7 billion per year in the U.S., including $2 billion spent on late-stage treatment (National Business Group on Health, 2011). If breast cancer is detected through mammography screening and diagnosed in its earliest stages, treatment may be less expensive (Feig, 2011).",
      "clinicalRecommendationStatement": "The U.S. Preventive Services Task Force (USPSTF) recommends biennial screening mammography for women aged 50-74 years (B recommendation).  <br> The decision to start screening mammography in women prior to age 50 years should be an individual one. Women who place a higher value on the potential benefit than the potential harms may choose to begin biennial screening between the ages of 40 and 49 years (C recommendation). (USPSTF, 2016) <br> The USPSTF concludes that the current evidence is insufficient to assess the balance of benefits and harms of screening mammography in women aged 75 years or older (I statement). (USPSTF, 2016) <br> The USPSTF concludes that the current evidence is insufficient to assess the benefits and harms of digital breast tomosynthesis (DBT) as a primary screening method for breast cancer (I Statement). (USPSTF, 2016)  <br> The USPSTF concludes that the current evidence is insufficient to assess the balance of benefits and harms of adjunctive screening for breast cancer using breast ultrasonography, magnetic resonance imaging, DBT, or other methods in women identified to have dense breasts on an otherwise negative screening mammogram (I statement). (USPSTF, 2016)",
      "improvementNotation": {
        "coding": [ {
          "system": "http://terminology.hl7.org/CodeSystem/measure-improvement-notation",
          "code": "increase"
        } ]
      },
      "guidance": "To ensure the measure is only looking for a cervical cytology test only after a woman turns 21 years of age, the youngest age in the initial population is 23. <br> Patient self-report for procedures as well as diagnostic studies should be recorded in 'Procedure, Performed' template or 'Diagnostic Study, Performed' template in QRDA-1. <br> Include only cytology and HPV \"co-testing\"; in co-testing, both cytology and HPV tests are performed (i.e., the samples are collected and both tests are ordered, regardless of the cytology result) on the same date of service. Do not include reflex testing. In addition, if the medical record indicates the HPV test was performed only after determining the cytology result, this is considered reflex testing and does not meet criteria for the measure.",
      "group": [ {
        "id": "group-1",
        "population": [ {
          "code": {
            "coding": [ {
              "system": "http://terminology.hl7.org/CodeSystem/measure-population",
              "code": "initial-population",
              "display": "Initial Population"
            } ]
          },
          "criteria": {
            "language": "text/cql",
            "expression": "Initial Population"
          }
        }, {
          "code": {
            "coding": [ {
              "system": "http://terminology.hl7.org/CodeSystem/measure-population",
              "code": "numerator",
              "display": "Numerator"
            } ]
          },
          "criteria": {
            "language": "text/cql",
            "expression": "Numerator"
          }
        }, {
          "code": {
            "coding": [ {
              "system": "http://terminology.hl7.org/CodeSystem/measure-population",
              "code": "denominator",
              "display": "Denominator"
            } ]
          },
          "criteria": {
            "language": "text/cql",
            "expression": "Denominator"
          }
        }, {
          "code": {
            "coding": [ {
              "system": "http://terminology.hl7.org/CodeSystem/measure-population",
              "code": "denominator-exclusion",
              "display": "Denominator Exclusion"
            } ]
          },
          "criteria": {
            "language": "text/cql",
            "expression": "Denominator Exclusion"
          }
        } ]
      } ],
      "supplementalData": [ {
        "code": {
          "text": "sde-ethnicity"
        },
        "usage": [ {
          "coding": [ {
            "system": "http://hl7.org/fhir/measure-data-usage",
            "code": "supplemental-data"
          } ]
        } ],
        "criteria": {
          "language": "text/cql",
          "expression": "SDE Ethnicity"
        }
      }, {
        "code": {
          "text": "sde-payer"
        },
        "usage": [ {
          "coding": [ {
            "system": "http://hl7.org/fhir/measure-data-usage",
            "code": "supplemental-data"
          } ]
        } ],
        "criteria": {
          "language": "text/cql",
          "expression": "SDE Payer"
        }
      }, {
        "code": {
          "text": "sde-race"
        },
        "usage": [ {
          "coding": [ {
            "system": "http://hl7.org/fhir/measure-data-usage",
            "code": "supplemental-data"
          } ]
        } ],
        "criteria": {
          "language": "text/cql",
          "expression": "SDE Race"
        }
      }, {
        "code": {
          "text": "sde-sex"
        },
        "usage": [ {
          "coding": [ {
            "system": "http://hl7.org/fhir/measure-data-usage",
            "code": "supplemental-data"
          } ]
        } ],
        "criteria": {
          "language": "text/cql",
          "expression": "SDE Sex"
        }
      } ]
    },
    "request": {
      "method": "PUT",
      "url": "Measure/EXM124-8.2.000"
    }
  }, {
    "resource": {
      "resourceType": "ValueSet",
      "id": "2.16.840.1.114222.4.11.836",
      "url": "http://cts.nlm.nih.gov/fhir/ValueSet/2.16.840.1.114222.4.11.836",
      "identifier": [ {
        "system": "urn:ietf:rfc:3986",
        "value": "2.16.840.1.114222.4.11.836"
      } ],
      "version": "20121025",
      "name": "Race",
      "title": "Race",
      "status": "active",
      "publisher": "NLM",
      "compose": {
        "include": [ {
          "system": "http://www.cdc.gov/phin/resources/vocabulary/index.html",
          "version": "1.2",
          "concept": [ {
            "code": "1002-5",
            "display": "American Indian or Alaska Native"
          }, {
            "code": "2028-9",
            "display": "Asian"
          }, {
            "code": "2054-5",
            "display": "Black or African American"
          }, {
            "code": "2076-8",
            "display": "Native Hawaiian or Other Pacific Islander"
          }, {
            "code": "2106-3",
            "display": "White"
          }, {
            "code": "2131-1",
            "display": "Other Race"
          } ]
        } ]
      }
    },
    "request": {
      "method": "PUT",
      "url": "ValueSet/2.16.840.1.114222.4.11.836"
    }
  }, {
    "resource": {
      "resourceType": "Library",
      "id": "Hospice-1.0.000",
      "text": {
        "status": "generated",
        "div": "<div xmlns=\"http://www.w3.org/1999/xhtml\"><table class=\"grid dict\"><tr><th scope=\"row\"><b>Id: </b></th><td style=\"padding-left: 25px; padding-right: 25px;\">Library/library-hospice-FHIR</td></tr><tr><th scope=\"row\"><b>Type: </b></th><td style=\"padding-right: 25px;\"><span><span><span style=\"padding-left: 25px;\"><b>system: </b><span>http://hl7.org/fhir/library-type</span><br/></span><span style=\"padding-left: 25px;\"><b>code: </b><span>logic-library</span></span></span></span></td></tr><tr style=\"vertical-align: top;\"><th rowspan=\"1\" scope=\"row\"><b>Identifier: </b></th><td style=\"padding-left: 25px; padding-right: 25px;\"><b>system: </b><span>http://example.org/fhir/cqi/ecqm/Library/Identifier</span><br/><b>value: </b><span>Hospice_FHIR</span></td></tr><tr><th scope=\"row\"><b>Version: </b></th><td style=\"padding-left: 25px; padding-right: 25px;\">1.0.000</td></tr><tr><th scope=\"row\"><b>Title: </b></th><td style=\"padding-left: 25px; padding-right: 25px;\">Hospice FHIR</td></tr><tr><th scope=\"row\"><b>Status: </b></th><td style=\"padding-left: 25px; padding-right: 25px;\">active</td></tr><tr><th scope=\"row\"><b>Description: </b></th><td style=\"padding-left: 25px; padding-right: 25px;\">This library is used as an example in the FHIR Quality Measure Implementation Guide</td></tr><tr style=\"vertical-align: top;\"><th rowspan=\"2\" scope=\"row\"><b>Related: </b></th><td style=\"padding-left: 25px; padding-right: 25px;\"><p style=\"margin-bottom: 5px;\"><b>type: </b><span>depends-on</span></p><p style=\"margin-bottom: 5px;\"><b>Resource: </b><br/><span><span style=\"padding-left: 25px;\"><b>reference: </b><span>Library/library-mat-global-common-functions-FHIR</span></span></span></p></td></tr><tr style=\"vertical-align: top;\"><td style=\"padding-left: 25px; padding-right: 25px;\"><p style=\"margin-bottom: 5px;\"><b>type: </b><span>depends-on</span></p><p style=\"margin-bottom: 5px;\"><b>Resource: </b><br/><span><span style=\"padding-left: 25px;\"><b>reference: </b><span>Library/library-fhir-helpers</span></span></span></p></td></tr><tr style=\"vertical-align: top;\"><th rowspan=\"3\" scope=\"row\"><b>Data Requirements: </b></th><td style=\"padding-left: 25px; padding-right: 25px;\"><div><p style=\"margin-bottom: 5px;\"><b>type: </b><span>Encounter</span></p><p style=\"margin-bottom: 5px;\"><b>code filter:</b><br/><span style=\"padding-left: 25px;\"><b>path: </b><span>type</span></span><br/><span style=\"padding-left: 25px;\"><b>valueset: </b><span>http://cts.nlm.nih.gov/fhir/ValueSet/2.16.840.1.113883.3.666.5.307</span></span></p></div></td></tr><tr style=\"vertical-align: top;\"><td style=\"padding-left: 25px; padding-right: 25px;\"><div><p style=\"margin-bottom: 5px;\"><b>type: </b><span>ProcedureRequest</span></p><p style=\"margin-bottom: 5px;\"><b>code filter:</b><br/><span style=\"padding-left: 25px;\"><b>path: </b><span>code</span></span><br/><span style=\"padding-left: 25px;\"><b>valueset: </b><span>http://cts.nlm.nih.gov/fhir/ValueSet/2.16.840.1.113762.1.4.1108.15</span></span></p></div></td></tr><tr style=\"vertical-align: top;\"><td style=\"padding-left: 25px; padding-right: 25px;\"><div><p style=\"margin-bottom: 5px;\"><b>type: </b><span>Procedure</span></p><p style=\"margin-bottom: 5px;\"><b>code filter:</b><br/><span style=\"padding-left: 25px;\"><b>path: </b><span>code</span></span><br/><span style=\"padding-left: 25px;\"><b>valueset: </b><span>http://cts.nlm.nih.gov/fhir/ValueSet/2.16.840.1.113762.1.4.1108.15</span></span></p></div></td></tr>                            <!-- Filter down to human readable content --><tr style=\"vertical-align: top;\"><th scope=\"row\"><b>Content: </b></th><td style=\"padding-left: 25px; padding-right: 25px;\"><b>type: </b><span>text/cql</span></td></tr><tr><td colspan=\"2\" style=\"padding-left: 25px; padding-right: 25px;\"><pre><code class=\"language-cql\">library Hospice_FHIR version '1.0.000'\r\n\r\n/*\r\nThis example is a work in progress and should not be considered a final specification\r\nor recommendation for guidance. This example will help guide and direct the process\r\nof finding conventions and usage patterns that meet the needs of the various stakeholders\r\nin the measure development community.\r\n*/\r\n\r\nusing FHIR version '3.0.0'\r\n\r\ninclude MATGlobalCommonFunctions_FHIR version '2.0.000' called Global\r\ninclude FHIRHelpers version '3.0.0' called FHIRHelpers\r\n\r\ncodesystem &quot;SNOMEDCT:2017-09&quot;: 'http://snomed.info/sct/731000124108' version 'http://snomed.info/sct/731000124108/version/201709'\r\n\r\nvalueset &quot;Encounter Inpatient&quot;: 'http://cts.nlm.nih.gov/fhir/ValueSet/2.16.840.1.113883.3.666.5.307'\r\nvalueset &quot;Hospice care ambulatory&quot;: 'http://cts.nlm.nih.gov/fhir/ValueSet/2.16.840.1.113762.1.4.1108.15'\r\n\r\ncode &quot;Discharge to healthcare facility for hospice care (procedure)&quot;: '428371000124100' from &quot;SNOMEDCT:2017-09&quot; display 'Discharge to healthcare facility for hospice care (procedure)'\r\ncode &quot;Discharge to home for hospice care (procedure)&quot;: '428361000124107' from &quot;SNOMEDCT:2017-09&quot; display 'Discharge to home for hospice care (procedure)'\r\n\r\ncontext Patient\r\n\r\ndefine function &quot;Has Hospice&quot;(MeasurementPeriod Interval&lt;DateTime&gt;):\r\n  exists ( [Encounter: &quot;Encounter Inpatient&quot;] DischargeHospice\r\n      where DischargeHospice.status = 'final'\r\n        and ( FHIRHelpers.ToConcept(DischargeHospice.hospitalization.dischargeDisposition).codes[0]~ &quot;Discharge to home for hospice care (procedure)&quot;\r\n            or FHIRHelpers.ToConcept(DischargeHospice.hospitalization.dischargeDisposition).codes[0]~ &quot;Discharge to healthcare facility for hospice care (procedure)&quot;\r\n        )\r\n        and DischargeHospice.period ends during day of MeasurementPeriod\r\n  )\r\n    or exists ( [ProcedureRequest: &quot;Hospice care ambulatory&quot;] HospiceOrder\r\n        where HospiceOrder.intent = 'order'\r\n          and HospiceOrder.authoredOn in day of MeasurementPeriod\r\n    )\r\n    or exists ( [Procedure: &quot;Hospice care ambulatory&quot;] HospicePerformed\r\n        where HospicePerformed.status = 'completed'\r\n          and Global.&quot;Get Choice Interval - dateTime or Period&quot;(HospicePerformed.performed)overlaps MeasurementPeriod\r\n    )</code></pre>\r\n                    \r\n                    \r\n                </td>\r\n            </tr>\r\n        \r\n        \r\n            \r\n            \r\n        \r\n    </table>\r\n</div>"
      },
      "contained": [ {
        "resourceType": "Device",
        "id": "cqf-tooling",
        "meta": {
          "profile": [ "http://hl7.org/fhir/us/cqfmeasures/StructureDefinition/device-softwaresystem-cqfm" ]
        },
        "type": {
          "coding": [ {
            "system": "http://hl7.org/fhir/us/cqfmeasures/CodeSystem/software-system-type",
            "code": "tooling"
          } ]
        }
      } ],
      "extension": [ {
        "url": "http://hl7.org/fhir/us/cqfmeasures/StructureDefinition/cqfm-softwaresystem",
        "valueReference": {
          "reference": "#cqf-tooling"
        }
      } ],
      "url": "http://fhir.org/guides/cqframework/Library/Hospice",
      "identifier": [ {
        "use": "official",
        "system": "http://example.org/fhir/cqi/ecqm/Library/Identifier",
        "value": "Hospice"
      } ],
      "version": "1.0.000",
      "name": "Hospice",
      "title": "Hospice",
      "status": "active",
      "experimental": true,
      "type": {
        "coding": [ {
          "system": "http://hl7.org/fhir/library-type",
          "code": "logic-library"
        } ]
      },
      "date": "2019-09-03",
      "publisher": "Health Level 7 International - Clinical Quality Information Work Group",
      "contact": [ {
        "telecom": [ {
          "system": "url",
          "value": "http://www.hl7.org/Special/committees/cqi/index.cfm"
        } ]
      } ],
      "description": "This library is used as an example in the FHIR Quality Measure Implementation Guide",
      "approvalDate": "2019-08-03",
      "lastReviewDate": "2019-08-03",
      "relatedArtifact": [ {
        "type": "depends-on",
        "resource": "http://hl7.org/fhir/Library/FHIR-ModelInfo|4.0.0"
      }, {
        "type": "depends-on",
        "resource": "http://fhir.org/guides/cqframework/Library/MATGlobalCommonFunctions|4.0.000"
      }, {
        "type": "depends-on",
        "resource": "http://hl7.org/fhir/Library/FHIRHelpers|4.0.0"
      }, {
        "type": "depends-on",
        "resource": "http://snomed.info/sct/731000124108|http://snomed.info/sct/731000124108/version/201709"
      }, {
        "type": "depends-on",
        "resource": "http://cts.nlm.nih.gov/fhir/ValueSet/2.16.840.1.113883.3.666.5.307"
      }, {
        "type": "depends-on",
        "resource": "http://cts.nlm.nih.gov/fhir/ValueSet/2.16.840.1.113762.1.4.1108.15"
      } ],
      "parameter": [ {
        "name": "Patient",
        "use": "out",
        "min": 0,
        "max": "1",
        "type": "Patient"
      } ],
      "dataRequirement": [ {
        "type": "Encounter",
        "codeFilter": [ {
          "path": "type",
          "valueSet": "http://cts.nlm.nih.gov/fhir/ValueSet/2.16.840.1.113883.3.666.5.307"
        } ]
      }, {
        "type": "ServiceRequest",
        "codeFilter": [ {
          "path": "code",
          "valueSet": "http://cts.nlm.nih.gov/fhir/ValueSet/2.16.840.1.113762.1.4.1108.15"
        } ]
      }, {
        "type": "Procedure",
        "codeFilter": [ {
          "path": "code",
          "valueSet": "http://cts.nlm.nih.gov/fhir/ValueSet/2.16.840.1.113762.1.4.1108.15"
        } ]
      } ],
      "content": [ {
        "contentType": "text/cql",
        "data": ""
      }, {
        "contentType": "application/elm+xml",
        "data": ""
      } ]
    },
    "request": {
      "method": "PUT",
      "url": "Library/Hospice-1.0.000"
    }
  }, {
    "resource": {
      "resourceType": "ValueSet",
      "id": "2.16.840.1.113883.3.666.5.307",
      "url": "http://cts.nlm.nih.gov/fhir/ValueSet/2.16.840.1.113883.3.666.5.307",
      "identifier": [ {
        "system": "urn:ietf:rfc:3986",
        "value": "2.16.840.1.113883.3.666.5.307"
      } ],
      "version": "20170504",
      "name": "EncounterInpatient",
      "title": "Encounter Inpatient",
      "status": "active",
      "publisher": "NLM",
      "compose": {
        "include": [ {
          "system": "http://snomed.info/sct",
          "version": "2018-03",
          "concept": [ {
            "code": "183452005",
            "display": "Emergency hospital admission (procedure)"
          }, {
            "code": "32485007",
            "display": "Hospital admission (procedure)"
          }, {
            "code": "8715000",
            "display": "Hospital admission, elective (procedure)"
          } ]
        } ]
      }
    },
    "request": {
      "method": "PUT",
      "url": "ValueSet/2.16.840.1.113883.3.666.5.307"
    }
  }, {
    "resource": {
      "resourceType": "Library",
      "id": "SupplementalDataElements-1.0.0",
      "text": {
        "status": "generated",
        "div": "<div xmlns=\"http://www.w3.org/1999/xhtml\"><table class=\"grid dict\"><tr><th scope=\"row\"><b>Id: </b></th><td style=\"padding-left: 25px; padding-right: 25px;\">Library/library-supplemental-data-elements-FHIR</td></tr><tr><th scope=\"row\"><b>Type: </b></th><td style=\"padding-right: 25px;\"><span><span><span style=\"padding-left: 25px;\"><b>system: </b><span>http://hl7.org/fhir/library-type</span><br/></span><span style=\"padding-left: 25px;\"><b>code: </b><span>logic-library</span></span></span></span></td></tr><tr style=\"vertical-align: top;\"><th rowspan=\"1\" scope=\"row\"><b>Identifier: </b></th><td style=\"padding-left: 25px; padding-right: 25px;\"><b>system: </b><span>http://example.org/fhir/cqi/ecqm/Library/Identifier</span><br/><b>value: </b><span>SupplementalDataElements_FHIR</span></td></tr><tr><th scope=\"row\"><b>Version: </b></th><td style=\"padding-left: 25px; padding-right: 25px;\">1.0.0</td></tr><tr><th scope=\"row\"><b>Title: </b></th><td style=\"padding-left: 25px; padding-right: 25px;\">Supplemental Data Elements FHIR</td></tr><tr><th scope=\"row\"><b>Status: </b></th><td style=\"padding-left: 25px; padding-right: 25px;\">active</td></tr><tr><th scope=\"row\"><b>Description: </b></th><td style=\"padding-left: 25px; padding-right: 25px;\">This library is used as an example in the FHIR Quality Measure Implementation Guide</td></tr><tr style=\"vertical-align: top;\"><th rowspan=\"1\" scope=\"row\"><b>Related: </b></th><td style=\"padding-left: 25px; padding-right: 25px;\"><p style=\"margin-bottom: 5px;\"><b>type: </b><span>depends-on</span></p><p style=\"margin-bottom: 5px;\"><b>Resource: </b><br/><span><span style=\"padding-left: 25px;\"><b>reference: </b><span>Library/library-fhir-helpers</span></span></span></p></td></tr><tr style=\"vertical-align: top;\"><th rowspan=\"1\" scope=\"row\"><b>Data Requirements: </b></th><td style=\"padding-left: 25px; padding-right: 25px;\"><div><p style=\"margin-bottom: 5px;\"><b>type: </b><span>Coverage</span></p><p style=\"margin-bottom: 5px;\"><b>code filter:</b><br/><span style=\"padding-left: 25px;\"><b>path: </b><span>type</span></span><br/><span style=\"padding-left: 25px;\"><b>valueset: </b><span>http://cts.nlm.nih.gov/fhir/ValueSet/2.16.840.1.114222.4.11.3591</span></span></p></div></td></tr>                                                <!-- Filter down to human readable content --><tr style=\"vertical-align: top;\"><th scope=\"row\"><b>Content: </b></th><td style=\"padding-left: 25px; padding-right: 25px;\"><b>type: </b><span>text/cql</span></td></tr><tr><td colspan=\"2\" style=\"padding-left: 25px; padding-right: 25px;\"><pre><code class=\"language-cql\">library SupplementalDataElements_FHIR version '1.0.0'\r\n\r\nusing FHIR version '3.0.0'\r\n\r\ninclude FHIRHelpers version '3.0.0' called FHIRHelpers\r\n\r\nvalueset &quot;ONC Administrative Sex&quot;: 'http://cts.nlm.nih.gov/fhir/ValueSet/2.16.840.1.113762.1.4.1'\r\nvalueset &quot;Race&quot;: 'http://cts.nlm.nih.gov/fhir/ValueSet/2.16.840.1.114222.4.11.836'\r\nvalueset &quot;Ethnicity&quot;: 'http://cts.nlm.nih.gov/fhir/ValueSet/2.16.840.1.114222.4.11.837'\r\nvalueset &quot;Payer&quot;: 'http://cts.nlm.nih.gov/fhir/ValueSet/2.16.840.1.114222.4.11.3591'\r\n\r\ncontext Patient\r\n\r\ndefine &quot;SDE Ethnicity&quot;:\r\n  ( flatten ( Patient.extension Extension\r\n      where Extension.url = 'http://hl7.org/fhir/us/core/StructureDefinition/us-core-ethnicity'\r\n      return Extension.extension\r\n  ) ) E\r\n    where E.url = 'ombCategory'\r\n      or E.url = 'detailed'\r\n    return E.value as Coding\r\n\r\ndefine &quot;SDE Payer&quot;:\r\n  [Coverage: type in &quot;Payer&quot;] Payer\r\n    return {\r\n      code: Payer.type,\r\n      period: Payer.period\r\n    }\r\n\r\ndefine &quot;SDE Race&quot;:\r\n  ( flatten ( Patient.extension Extension\r\n      where Extension.url = 'http://hl7.org/fhir/us/core/StructureDefinition/us-core-race'\r\n      return Extension.extension\r\n  ) ) E\r\n    where E.url = 'ombCategory'\r\n      or E.url = 'detailed'\r\n    return E.value as Coding\r\n\r\ndefine &quot;SDE Sex&quot;:\r\n  case\r\n    when Patient.gender = 'male' then Code { code: 'M', system: 'http://hl7.org/fhir/v3/AdministrativeGender', display: 'Male' }\r\n    when Patient.gender = 'female' then Code { code: 'F', system: 'http://hl7.org/fhir/v3/AdministrativeGender', display: 'Female' } \r\n    else null \r\n  end</code></pre>\r\n                    \r\n                    \r\n                </td>\r\n            </tr>\r\n        \r\n        \r\n            \r\n            \r\n        \r\n    </table>\r\n</div>"
      },
      "contained": [ {
        "resourceType": "Device",
        "id": "cqf-tooling",
        "meta": {
          "profile": [ "http://hl7.org/fhir/us/cqfmeasures/StructureDefinition/device-softwaresystem-cqfm" ]
        },
        "type": {
          "coding": [ {
            "system": "http://hl7.org/fhir/us/cqfmeasures/CodeSystem/software-system-type",
            "code": "tooling"
          } ]
        }
      } ],
      "extension": [ {
        "url": "http://hl7.org/fhir/us/cqfmeasures/StructureDefinition/cqfm-softwaresystem",
        "valueReference": {
          "reference": "#cqf-tooling"
        }
      } ],
      "url": "http://fhir.org/guides/cqframework/Library/SupplementalDataElements",
      "identifier": [ {
        "use": "official",
        "system": "http://example.org/fhir/cqi/ecqm/Library/Identifier",
        "value": "SupplementalDataElements"
      } ],
      "version": "1.0.0",
      "name": "SupplementalDataElements",
      "title": "Supplemental Data Elements",
      "status": "active",
      "experimental": true,
      "type": {
        "coding": [ {
          "system": "http://hl7.org/fhir/library-type",
          "code": "logic-library"
        } ]
      },
      "date": "2019-09-03",
      "publisher": "Health Level 7 International - Clinical Quality Information Work Group",
      "contact": [ {
        "telecom": [ {
          "system": "url",
          "value": "http://www.hl7.org/Special/committees/cqi/index.cfm"
        } ]
      } ],
      "description": "This library is used as an example in the FHIR Quality Measure Implementation Guide",
      "approvalDate": "2019-08-03",
      "lastReviewDate": "2019-08-03",
      "relatedArtifact": [ {
        "type": "depends-on",
        "resource": "http://hl7.org/fhir/Library/FHIR-ModelInfo|4.0.0"
      }, {
        "type": "depends-on",
        "resource": "http://hl7.org/fhir/Library/FHIRHelpers|4.0.0"
      }, {
        "type": "depends-on",
        "resource": "http://cts.nlm.nih.gov/fhir/ValueSet/2.16.840.1.113762.1.4.1"
      }, {
        "type": "depends-on",
        "resource": "http://cts.nlm.nih.gov/fhir/ValueSet/2.16.840.1.114222.4.11.836"
      }, {
        "type": "depends-on",
        "resource": "http://cts.nlm.nih.gov/fhir/ValueSet/2.16.840.1.114222.4.11.837"
      }, {
        "type": "depends-on",
        "resource": "http://cts.nlm.nih.gov/fhir/ValueSet/2.16.840.1.114222.4.11.3591"
      } ],
      "parameter": [ {
        "name": "Patient",
        "use": "out",
        "min": 0,
        "max": "1",
        "type": "Patient"
      }, {
        "name": "SDE Ethnicity",
        "use": "out",
        "min": 0,
        "max": "*",
        "type": "Coding"
      }, {
        "name": "SDE Payer",
        "use": "out",
        "min": 0,
        "max": "*",
        "type": "Any"
      }, {
        "name": "SDE Race",
        "use": "out",
        "min": 0,
        "max": "*",
        "type": "Coding"
      }, {
        "name": "SDE Sex",
        "use": "out",
        "min": 0,
        "max": "1",
        "type": "Coding"
      } ],
      "dataRequirement": [ {
        "type": "Coverage",
        "codeFilter": [ {
          "path": "type",
          "valueSet": "http://cts.nlm.nih.gov/fhir/ValueSet/2.16.840.1.114222.4.11.3591"
        } ]
      } ],
      "content": [ {
        "contentType": "text/cql",
        "data": ""
      }, {
        "contentType": "application/elm+xml",
        "data": ""
      } ]
    },
    "request": {
      "method": "PUT",
      "url": "Library/SupplementalDataElements-1.0.0"
    }
  }, {
    "resource": {
      "resourceType": "Bundle",
      "id": "tests-Encounter-bundle",
      "type": "transaction",
      "entry": [ {
        "resource": {
          "resourceType": "Encounter",
          "id": "numer-EXM124-2",
          "meta": {
            "profile": [ "http://hl7.org/fhir/us/core/StructureDefinition/us-core-encounter" ]
          },
          "status": "finished",
          "class": {
            "system": "http://terminology.hl7.org/CodeSystem/v3-ActCode",
            "code": "AMB",
            "display": "ambulatory"
          },
          "type": [ {
            "coding": [ {
              "system": "http://www.ama-assn.org/go/cpt",
              "code": "99201",
              "display": "Office or other outpatient visit for the evaluation and management of a new patient, which requires these 3 key components: A problem focused history; A problem focused examination; Straightforward medical decision making. Counseling and/or coordination of care with other physicians, other qualified health care professionals, or agencies are provided consistent with the nature of the problem(s) and the patient's and/or family's needs. Usually, the presenting problem(s) are self limited or minor. Typically, 10 minutes are spent face-to-face with the patient and/or family."
            } ]
          } ],
          "subject": {
            "reference": "Patient/numer-EXM124"
          },
          "period": {
            "start": "2019-01-01T00:00:00.0",
            "end": "2019-01-02T00:00:00.0"
          }
        },
        "request": {
          "method": "PUT",
          "url": "Encounter/numer-EXM124-2"
        }
      } ]
    },
    "request": {
      "method": "PUT",
      "url": "Bundle/tests-Encounter-bundle"
    }
  }, {
    "resource": {
      "resourceType": "Library",
      "id": "MATGlobalCommonFunctions-4.0.000",
      "text": {
        "status": "generated",
        "div": "<div xmlns=\"http://www.w3.org/1999/xhtml\"><table class=\"grid dict\"><tr><th scope=\"row\"><b>Id: </b></th><td style=\"padding-left: 25px; padding-right: 25px;\">Library/library-mat-global-common-functions-FHIR</td></tr><tr><th scope=\"row\"><b>Type: </b></th><td style=\"padding-right: 25px;\"><span><span><span style=\"padding-left: 25px;\"><b>system: </b><span>http://hl7.org/fhir/library-type</span><br/></span><span style=\"padding-left: 25px;\"><b>code: </b><span>logic-library</span></span></span></span></td></tr><tr style=\"vertical-align: top;\"><th rowspan=\"1\" scope=\"row\"><b>Identifier: </b></th><td style=\"padding-left: 25px; padding-right: 25px;\"><b>system: </b><span>http://example.org/fhir/cqi/ecqm/Library/Identifier</span><br/><b>value: </b><span>MATGlobalCommonFunctions_FHIR</span></td></tr><tr><th scope=\"row\"><b>Version: </b></th><td style=\"padding-left: 25px; padding-right: 25px;\">2.0.000</td></tr><tr><th scope=\"row\"><b>Title: </b></th><td style=\"padding-left: 25px; padding-right: 25px;\">MAT Global Common Functions FHIR</td></tr><tr><th scope=\"row\"><b>Status: </b></th><td style=\"padding-left: 25px; padding-right: 25px;\">active</td></tr><tr><th scope=\"row\"><b>Description: </b></th><td style=\"padding-left: 25px; padding-right: 25px;\">This library is used as an example in the FHIR Quality Measure Implementation Guide</td></tr><tr style=\"vertical-align: top;\"><th rowspan=\"1\" scope=\"row\"><b>Related: </b></th><td style=\"padding-left: 25px; padding-right: 25px;\"><p style=\"margin-bottom: 5px;\"><b>type: </b><span>depends-on</span></p><p style=\"margin-bottom: 5px;\"><b>Resource: </b><br/><span><span style=\"padding-left: 25px;\"><b>reference: </b><span>Library/library-fhir-helpers</span></span></span></p></td></tr><tr style=\"vertical-align: top;\"><th rowspan=\"5\" scope=\"row\"><b>Data Requirements: </b></th><td style=\"padding-left: 25px; padding-right: 25px;\"><div><p style=\"margin-bottom: 5px;\"><b>type: </b><span>Encounter</span></p><p style=\"margin-bottom: 5px;\"><b>code filter:</b><br/><span style=\"padding-left: 25px;\"><b>path: </b><span>type</span></span><br/><span style=\"padding-left: 25px;\"><b>valueset: </b><span>http://cts.nlm.nih.gov/fhir/ValueSet/2.16.840.1.113883.3.666.5.307</span></span></p></div></td></tr><tr style=\"vertical-align: top;\"><td style=\"padding-left: 25px; padding-right: 25px;\"><div><p style=\"margin-bottom: 5px;\"><b>type: </b><span>Encounter</span></p><p style=\"margin-bottom: 5px;\"><b>code filter:</b><br/><span style=\"padding-left: 25px;\"><b>path: </b><span>type</span></span><br/><span style=\"padding-left: 25px;\"><b>valueset: </b><span>http://cts.nlm.nih.gov/fhir/ValueSet/2.16.840.1.113883.3.117.1.7.1.292</span></span></p></div></td></tr><tr style=\"vertical-align: top;\"><td style=\"padding-left: 25px; padding-right: 25px;\"><div><p style=\"margin-bottom: 5px;\"><b>type: </b><span>Condition</span></p><p style=\"margin-bottom: 5px;\"><b>code filter:</b><br/><span style=\"padding-left: 25px;\"><b>path: </b><span>id</span></span></p></div></td></tr><tr style=\"vertical-align: top;\"><td style=\"padding-left: 25px; padding-right: 25px;\"><div><p style=\"margin-bottom: 5px;\"><b>type: </b><span>Condition</span></p><p style=\"margin-bottom: 5px;\"><b>code filter:</b><br/><span style=\"padding-left: 25px;\"><b>path: </b><span>id</span></span></p></div></td></tr><tr style=\"vertical-align: top;\"><td style=\"padding-left: 25px; padding-right: 25px;\"><div><p style=\"margin-bottom: 5px;\"><b>type: </b><span>Location</span></p><p style=\"margin-bottom: 5px;\"><b>code filter:</b><br/><span style=\"padding-left: 25px;\"><b>path: </b><span>id</span></span></p></div></td></tr>                            <!-- Filter down to human readable content --><tr style=\"vertical-align: top;\"><th scope=\"row\"><b>Content: </b></th><td style=\"padding-left: 25px; padding-right: 25px;\"><b>type: </b><span>text/cql</span></td></tr><tr><td colspan=\"2\" style=\"padding-left: 25px; padding-right: 25px;\"><pre><code class=\"language-cql\">library MATGlobalCommonFunctions_FHIR version '2.0.000'\r\n\r\n/*\r\nThis example is a work in progress and should not be considered a final specification\r\nor recommendation for guidance. This example will help guide and direct the process\r\nof finding conventions and usage patterns that meet the needs of the various stakeholders\r\nin the measure development community.\r\n*/\r\n\r\nusing FHIR version '3.0.0'\r\n\r\ninclude FHIRHelpers version '3.0.0' called FHIRHelpers\r\n\r\ncodesystem &quot;LOINC&quot;: 'http://loinc.org'\r\ncodesystem &quot;SNOMEDCT&quot;: 'http://snomed.info/sct/731000124108'\r\ncodesystem &quot;RoleCode&quot;: 'http://hl7.org/fhir/v3/RoleCode'\r\ncodesystem &quot;Diagnosis Role&quot;: 'http://hl7.org/fhir/diagnosis-role'\r\n\r\nvalueset &quot;Encounter Inpatient&quot;: 'http://cts.nlm.nih.gov/fhir/ValueSet/2.16.840.1.113883.3.666.5.307'\r\nvalueset &quot;Emergency Department Visit&quot;: 'http://cts.nlm.nih.gov/fhir/ValueSet/2.16.840.1.113883.3.117.1.7.1.292'\r\n\r\ncode &quot;Birthdate&quot;: '21112-8' from &quot;LOINC&quot; display 'Birth date'\r\ncode &quot;Dead&quot;: '419099009' from &quot;SNOMEDCT&quot; display 'Dead'\r\ncode &quot;ER&quot;: 'ER' from &quot;RoleCode&quot; display 'Emergency room'\r\ncode &quot;ICU&quot;: 'ICU' from &quot;RoleCode&quot; display 'Intensive care unit'\r\ncode &quot;Billing&quot;: 'billing' from &quot;Diagnosis Role&quot; display 'Billing'\r\n\r\nparameter &quot;Measurement Period&quot; Interval&lt;DateTime&gt;\r\n\r\ncontext Patient\r\n\r\ndefine &quot;Inpatient Encounter&quot;:\r\n  [Encounter: &quot;Encounter Inpatient&quot;] EncounterInpatient\r\n    where EncounterInpatient.status = 'finished'\r\n      and &quot;LengthInDays&quot;(EncounterInpatient.period)&lt;= 120\r\n      and EncounterInpatient.period ends during &quot;Measurement Period&quot;\r\n\r\ndefine function &quot;ToDate&quot;(Value DateTime):\r\n  DateTime(year from Value, month from Value, day from Value, 0, 0, 0, 0, timezone from Value)\r\n\r\ndefine function &quot;CalendarAgeInDaysAt&quot;(BirthDateTime DateTime, AsOf DateTime):\r\n  days between ToDate(BirthDateTime)and ToDate(AsOf)\r\n\r\ndefine function &quot;CalendarAgeInDays&quot;(BirthDateTime DateTime):\r\n  CalendarAgeInDaysAt(BirthDateTime, Today())\r\n\r\ndefine function &quot;CalendarAgeInMonthsAt&quot;(BirthDateTime DateTime, AsOf DateTime):\r\n  months between ToDate(BirthDateTime)and ToDate(AsOf)\r\n\r\ndefine function &quot;CalendarAgeInMonths&quot;(BirthDateTime DateTime):\r\n  CalendarAgeInMonthsAt(BirthDateTime, Today())\r\n\r\ndefine function &quot;CalendarAgeInYearsAt&quot;(BirthDateTime DateTime, AsOf DateTime):\r\n  years between ToDate(BirthDateTime)and ToDate(AsOf)\r\n\r\ndefine function &quot;CalendarAgeInYears&quot;(BirthDateTime DateTime):\r\n  CalendarAgeInYearsAt(BirthDateTime, Today())\r\n\r\ndefine function &quot;LengthInDays&quot;(Value Interval&lt;DateTime&gt;):\r\n  difference in days between start of Value and \r\n  end of Value\r\n\r\ndefine function &quot;ED Visit&quot;(TheEncounter FHIR.Encounter):\r\n  singleton from ( [Encounter: &quot;Emergency Department Visit&quot;] EDVisit\r\n      where EDVisit.status = 'finished'\r\n        and EDVisit.period ends 1 hour or less on or before start of FHIRHelpers.ToInterval(TheEncounter.period)\r\n  )\r\n\r\ndefine function &quot;Hospitalization&quot;(TheEncounter FHIR.Encounter):\r\n  ( &quot;ED Visit&quot;(TheEncounter)) X\r\n    return if X is null then TheEncounter.period \r\n      else Interval[start of FHIRHelpers.ToInterval(X.period), \r\n    end of FHIRHelpers.ToInterval(TheEncounter.period)]\r\n\r\ndefine function &quot;Hospitalization Locations&quot;(TheEncounter FHIR.Encounter):\r\n  ( &quot;ED Visit&quot;(TheEncounter)) EDEncounter\r\n    return if EDEncounter is null then TheEncounter.location \r\n      else flatten { EDEncounter.location, TheEncounter.location }\r\n\r\ndefine function &quot;Hospitalization Length of Stay&quot;(TheEncounter FHIR.Encounter):\r\n  LengthInDays(&quot;Hospitalization&quot;(TheEncounter))\r\n\r\ndefine function &quot;Hospital Admission Time&quot;(TheEncounter FHIR.Encounter):\r\n  start of &quot;Hospitalization&quot;(TheEncounter)\r\n\r\ndefine function &quot;Hospital Discharge Time&quot;(TheEncounter FHIR.Encounter):\r\n  \r\n  end of FHIRHelpers.ToInterval(TheEncounter.period)\r\n\r\ndefine function &quot;Hospital Arrival Time&quot;(TheEncounter FHIR.Encounter):\r\n  start of FHIRHelpers.ToInterval(First((&quot;Hospitalization Locations&quot;(TheEncounter))HospitalLocation\r\n        sort by start of FHIRHelpers.ToInterval(period)\r\n    ).period\r\n  )\r\n\r\n// TODO - fix these (must fetch Location resources and compare id to reference)\r\n/*define function &quot;Hospital Departure Time&quot;(TheEncounter FHIR.Encounter):\r\n\tend of FHIRHelpers.ToInterval(Last(\r\n\t    ( &quot;Hospitalization Locations&quot;(TheEncounter) ) HospitalLocation\r\n\t\t\tsort by start of FHIRHelpers.ToInterval(period)\r\n\t).period)\r\n\r\ndefine function &quot;Emergency Department Arrival Time&quot;(TheEncounter FHIR.Encounter):\r\n\tstart of FHIRHelpers.ToInterval((\r\n\t    singleton from (\r\n\t        ( &quot;Hospitalization Locations&quot;(TheEncounter) ) HospitalLocation\r\n\t\t\t\twhere HospitalLocation.type ~ &quot;ER&quot;\r\n\t\t)\r\n\t).period)\r\n\r\ndefine function &quot;First Inpatient Intensive Care Unit&quot;(TheEncounter FHIR.Encounter):\r\n\tFirst(\r\n\t    ( TheEncounter.location ) HospitalLocation\r\n\t\t\twhere HospitalLocation.type ~ &quot;ICU&quot;\r\n\t\t\t\tand HospitalLocation.period during TheEncounter.period\r\n\t\t\tsort by start of FHIRHelpers.ToInterval(period)\r\n\t)*/\r\n\r\n\r\n\r\n\r\n/*\r\n*\r\n*    CQFMeasures Common Logic\r\n*\r\n*/\r\n\r\ndefine function &quot;Normalize Onset&quot;(onset Choice&lt;FHIR.dateTime, FHIR.Age, FHIR.Period, FHIR.Range, FHIR.string&gt;):\r\n  if onset is FHIR.dateTime then Interval[onset.value, onset.value]\r\n    else if onset is FHIR.Period then FHIRHelpers.ToInterval(onset as FHIR.Period)\r\n    else null\r\n\r\ndefine function &quot;Get Choice Interval - dateTime or Period&quot;(performed Choice&lt;FHIR.dateTime, FHIR.Period&gt;):\r\n  if performed is FHIR.dateTime then Interval[performed.value, performed.value]\r\n    else FHIRHelpers.ToInterval(performed as FHIR.Period)\r\n\r\ndefine function &quot;GetId&quot;(uri String):\r\n  Last(Split(uri, '/'))\r\n\r\ndefine function &quot;EncounterDiagnosis&quot;(Encounter Encounter):\r\n  Encounter.diagnosis D\r\n    return singleton from ( [Condition: id in &quot;GetId&quot;(D.condition.reference)] )\r\n\r\n// Returns the condition that is specified as the principal diagnosis for the encounter\r\n\r\ndefine function &quot;PrincipalDiagnosis&quot;(Encounter Encounter):\r\n  ( singleton from ( Encounter.diagnosis D\r\n      where D.role ~ ToConcept(&quot;Billing&quot;)\r\n        and D.rank = 1\r\n  ) ) PD\r\n    return singleton from ( [Condition: id in &quot;GetId&quot;(PD.condition.reference)] )\r\n\r\n// Returns the location for the given location reference\r\n\r\ndefine function GetLocation(reference Reference):\r\n  singleton from ( [Location: id in GetId(reference.reference)] )</code></pre>\r\n                    \r\n                    \r\n                </td>\r\n            </tr>\r\n        \r\n        \r\n            \r\n            \r\n        \r\n    </table>\r\n</div>"
      },
      "contained": [ {
        "resourceType": "Device",
        "id": "cqf-tooling",
        "meta": {
          "profile": [ "http://hl7.org/fhir/us/cqfmeasures/StructureDefinition/device-softwaresystem-cqfm" ]
        },
        "type": {
          "coding": [ {
            "system": "http://hl7.org/fhir/us/cqfmeasures/CodeSystem/software-system-type",
            "code": "tooling"
          } ]
        }
      } ],
      "extension": [ {
        "url": "http://hl7.org/fhir/us/cqfmeasures/StructureDefinition/cqfm-softwaresystem",
        "valueReference": {
          "reference": "#cqf-tooling"
        }
      } ],
      "url": "http://fhir.org/guides/cqframework/Library/MATGlobalCommonFunctions",
      "identifier": [ {
        "use": "official",
        "system": "http://example.org/fhir/cqi/ecqm/Library/Identifier",
        "value": "MATGlobalCommonFunctions"
      } ],
      "version": "4.0.000",
      "name": "MATGlobalCommonFunctions",
      "title": "MAT Global Common Functions",
      "status": "active",
      "experimental": true,
      "type": {
        "coding": [ {
          "system": "http://hl7.org/fhir/library-type",
          "code": "logic-library"
        } ]
      },
      "date": "2019-09-03",
      "publisher": "Health Level 7 International - Clinical Quality Information Work Group",
      "contact": [ {
        "telecom": [ {
          "system": "url",
          "value": "http://www.hl7.org/Special/committees/cqi/index.cfm"
        } ]
      } ],
      "description": "This library is used as an example in the FHIR Quality Measure Implementation Guide",
      "approvalDate": "2019-08-03",
      "lastReviewDate": "2019-08-03",
      "relatedArtifact": [ {
        "type": "depends-on",
        "resource": "http://hl7.org/fhir/Library/FHIR-ModelInfo|4.0.0"
      }, {
        "type": "depends-on",
        "resource": "http://hl7.org/fhir/Library/FHIRHelpers|4.0.0"
      }, {
        "type": "depends-on",
        "resource": "http://loinc.org"
      }, {
        "type": "depends-on",
        "resource": "http://snomed.info/sct/731000124108"
      }, {
        "type": "depends-on",
        "resource": "http://hl7.org/fhir/v3/RoleCode"
      }, {
        "type": "depends-on",
        "resource": "http://terminology.hl7.org/CodeSystem/diagnosis-role"
      }, {
        "type": "depends-on",
        "resource": "http://terminology.hl7.org/CodeSystem/request-intent"
      }, {
        "type": "depends-on",
        "resource": "http://terminology.hl7.org/CodeSystem/medicationrequest-category"
      }, {
        "type": "depends-on",
        "resource": "http://terminology.hl7.org/CodeSystem/condition-clinical"
      }, {
        "type": "depends-on",
        "resource": "http://terminology.hl7.org/CodeSystem/condition-verification"
      }, {
        "type": "depends-on",
        "resource": "http://terminology.hl7.org/CodeSystem/allergyintolerance-clinical"
      }, {
        "type": "depends-on",
        "resource": "http://terminology.hl7.org/CodeSystem/allergyintolerance-verification"
      }, {
        "type": "depends-on",
        "resource": "http://cts.nlm.nih.gov/fhir/ValueSet/2.16.840.1.113883.3.666.5.307"
      }, {
        "type": "depends-on",
        "resource": "http://cts.nlm.nih.gov/fhir/ValueSet/2.16.840.1.113883.3.117.1.7.1.292"
      }, {
        "type": "depends-on",
        "resource": "http://cts.nlm.nih.gov/fhir/ValueSet/2.16.840.1.113762.1.4.1111.143"
      } ],
      "parameter": [ {
        "name": "Measurement Period",
        "use": "in",
        "min": 0,
        "max": "1",
        "type": "Period"
      }, {
        "name": "Patient",
        "use": "out",
        "min": 0,
        "max": "1",
        "type": "Patient"
      }, {
        "name": "Inpatient Encounter",
        "use": "out",
        "min": 0,
        "max": "*",
        "type": "Encounter"
      } ],
      "dataRequirement": [ {
        "type": "Encounter",
        "codeFilter": [ {
          "path": "type",
          "valueSet": "http://cts.nlm.nih.gov/fhir/ValueSet/2.16.840.1.113883.3.666.5.307"
        } ]
      }, {
        "type": "Encounter",
        "codeFilter": [ {
          "path": "type",
          "valueSet": "http://cts.nlm.nih.gov/fhir/ValueSet/2.16.840.1.113883.3.117.1.7.1.292"
        } ]
      }, {
        "type": "Encounter",
        "codeFilter": [ {
          "path": "type",
          "valueSet": "http://cts.nlm.nih.gov/fhir/ValueSet/2.16.840.1.113762.1.4.1111.143"
        } ]
      }, {
        "type": "Encounter",
        "codeFilter": [ {
          "path": "type",
          "valueSet": "http://cts.nlm.nih.gov/fhir/ValueSet/2.16.840.1.113883.3.117.1.7.1.292"
        } ]
      }, {
        "type": "Condition"
      }, {
        "type": "Condition"
      }, {
        "type": "Location"
      }, {
        "type": "Provenance",
        "codeFilter": [ {
          "path": "target"
        } ]
      }, {
        "type": "Medication"
      } ],
      "content": [ {
        "contentType": "text/cql",
        "data": ""
      }, {
        "contentType": "application/elm+xml",
        "data": ""
      } ]
    },
    "request": {
      "method": "PUT",
      "url": "Library/MATGlobalCommonFunctions-4.0.000"
    }
  }, {
    "resource": {
      "resourceType": "Observation",
      "id": "numer-EXM124-3",
      "meta": {
        "profile": [ "http://hl7.org/fhir/observation" ]
      },
      "status": "final",
      "code": {
        "coding": [ {
          "system": "http://loinc.org",
          "code": "10524-7",
          "display": "Microscopic observation [Identifier] in Cervix by Cyto stain"
        } ]
      },
      "subject": {
        "reference": "Patient/numer-EXM124"
      },
      "effectiveDateTime": "2019-11-01T00:00:00",
      "valueBoolean": true
    },
    "request": {
      "method": "PUT",
      "url": "Observation/numer-EXM124-3"
    }
  }, {
    "resource": {
      "resourceType": "Encounter",
      "id": "numer-EXM124-2",
      "meta": {
        "profile": [ "http://hl7.org/fhir/us/core/StructureDefinition/us-core-encounter" ]
      },
      "status": "finished",
      "class": {
        "system": "http://terminology.hl7.org/CodeSystem/v3-ActCode",
        "code": "AMB",
        "display": "ambulatory"
      },
      "type": [ {
        "coding": [ {
          "system": "http://www.ama-assn.org/go/cpt",
          "code": "99201",
          "display": "Office or other outpatient visit for the evaluation and management of a new patient, which requires these 3 key components: A problem focused history; A problem focused examination; Straightforward medical decision making. Counseling and/or coordination of care with other physicians, other qualified health care professionals, or agencies are provided consistent with the nature of the problem(s) and the patient's and/or family's needs. Usually, the presenting problem(s) are self limited or minor. Typically, 10 minutes are spent face-to-face with the patient and/or family."
        } ]
      } ],
      "subject": {
        "reference": "Patient/numer-EXM124"
      },
      "period": {
        "start": "2019-01-01T00:00:00.0",
        "end": "2019-01-02T00:00:00.0"
      }
    },
    "request": {
      "method": "PUT",
      "url": "Encounter/numer-EXM124-2"
    }
  }, {
    "resource": {
      "resourceType": "ValueSet",
      "id": "2.16.840.1.113883.3.526.3.1240",
      "url": "http://cts.nlm.nih.gov/fhir/ValueSet/2.16.840.1.113883.3.526.3.1240",
      "identifier": [ {
        "system": "urn:ietf:rfc:3986",
        "value": "2.16.840.1.113883.3.526.3.1240"
      } ],
      "version": "20170504",
      "name": "AnnualWellnessVisit",
      "title": "Annual Wellness Visit",
      "status": "active",
      "publisher": "NLM",
      "compose": {
        "include": [ {
          "system": "https://www.cms.gov/Medicare/Coding/MedHCPCSGenInfo/index.html",
          "version": "2018",
          "concept": [ {
            "code": "G0438",
            "display": "Annual wellness visit; includes a personalized prevention plan of service (pps), initial visit"
          }, {
            "code": "G0439",
            "display": "Annual wellness visit, includes a personalized prevention plan of service (pps), subsequent visit"
          } ]
        } ]
      }
    },
    "request": {
      "method": "PUT",
      "url": "ValueSet/2.16.840.1.113883.3.526.3.1240"
    }
  }, {
    "resource": {
      "resourceType": "Patient",
      "id": "denom-EXM124",
      "meta": {
        "profile": [ "http://hl7.org/fhir/us/core/StructureDefinition/us-core-patient" ]
      },
      "extension": [ {
        "url": "http://hl7.org/fhir/us/core/StructureDefinition/us-core-race",
        "extension": [ {
          "url": "ombCategory",
          "valueCoding": {
            "system": "urn:oid:2.16.840.1.113883.6.238",
            "code": "2028-9",
            "display": "Asian"
          }
        } ]
      }, {
        "url": "http://hl7.org/fhir/us/core/StructureDefinition/us-core-ethnicity",
        "extension": [ {
          "url": "ombCategory",
          "valueCoding": {
            "system": "urn:oid:2.16.840.1.113883.6.238",
            "code": "2135-2",
            "display": "Hispanic or Latino"
          }
        } ]
      } ],
      "identifier": [ {
        "use": "usual",
        "type": {
          "coding": [ {
            "system": "http://terminology.hl7.org/CodeSystem/v2-0203",
            "code": "MR",
            "display": "Medical Record Number"
          } ]
        },
        "system": "http://hospital.smarthealthit.org",
        "value": "999999995"
      } ],
      "name": [ {
        "family": "Bertha",
        "given": [ "Betty" ]
      } ],
      "gender": "female",
      "birthDate": "1995-01-01"
    },
    "request": {
      "method": "PUT",
      "url": "Patient/denom-EXM124"
    }
  }, {
    "resource": {
      "resourceType": "ValueSet",
      "id": "2.16.840.1.113883.3.464.1003.101.12.1016",
      "url": "http://cts.nlm.nih.gov/fhir/ValueSet/2.16.840.1.113883.3.464.1003.101.12.1016",
      "identifier": [ {
        "system": "urn:ietf:rfc:3986",
        "value": "2.16.840.1.113883.3.464.1003.101.12.1016"
      } ],
      "version": "20180310",
      "name": "HomeHealthcareServices",
      "title": "Home Healthcare Services",
      "status": "active",
      "publisher": "NLM",
      "compose": {
        "include": [ {
          "system": "http://www.ama-assn.org/go/cpt",
          "version": "2018",
          "concept": [ {
            "code": "99341",
            "display": "Home visit for the evaluation and management of a new patient, which requires these 3 key components: A problem focused history; A problem focused examination; and Straightforward medical decision making. Counseling and/or coordination of care with other physicians, other qualified health care professionals, or agencies are provided consistent with the nature of the problem(s) and the patient's and/or family's needs. Usually, the presenting problem(s) are of low severity. Typically, 20 minutes are spent face-to-face with the patient and/or family."
          }, {
            "code": "99342",
            "display": "Home visit for the evaluation and management of a new patient, which requires these 3 key components: An expanded problem focused history; An expanded problem focused examination; and Medical decision making of low complexity. Counseling and/or coordination of care with other physicians, other qualified health care professionals, or agencies are provided consistent with the nature of the problem(s) and the patient's and/or family's needs. Usually, the presenting problem(s) are of moderate severity. Typically, 30 minutes are spent face-to-face with the patient and/or family."
          }, {
            "code": "99343",
            "display": "Home visit for the evaluation and management of a new patient, which requires these 3 key components: A detailed history; A detailed examination; and Medical decision making of moderate complexity. Counseling and/or coordination of care with other physicians, other qualified health care professionals, or agencies are provided consistent with the nature of the problem(s) and the patient's and/or family's needs. Usually, the presenting problem(s) are of moderate to high severity. Typically, 45 minutes are spent face-to-face with the patient and/or family."
          }, {
            "code": "99344",
            "display": "Home visit for the evaluation and management of a new patient, which requires these 3 key components: A comprehensive history; A comprehensive examination; and Medical decision making of moderate complexity. Counseling and/or coordination of care with other physicians, other qualified health care professionals, or agencies are provided consistent with the nature of the problem(s) and the patient's and/or family's needs. Usually, the presenting problem(s) are of high severity. Typically, 60 minutes are spent face-to-face with the patient and/or family."
          }, {
            "code": "99345",
            "display": "Home visit for the evaluation and management of a new patient, which requires these 3 key components: A comprehensive history; A comprehensive examination; and Medical decision making of high complexity. Counseling and/or coordination of care with other physicians, other qualified health care professionals, or agencies are provided consistent with the nature of the problem(s) and the patient's and/or family's needs. Usually, the patient is unstable or has developed a significant new problem requiring immediate physician attention. Typically, 75 minutes are spent face-to-face with the patient and/or family."
          }, {
            "code": "99347",
            "display": "Home visit for the evaluation and management of an established patient, which requires at least 2 of these 3 key components: A problem focused interval history; A problem focused examination; Straightforward medical decision making. Counseling and/or coordination of care with other physicians, other qualified health care professionals, or agencies are provided consistent with the nature of the problem(s) and the patient's and/or family's needs. Usually, the presenting problem(s) are self limited or minor. Typically, 15 minutes are spent face-to-face with the patient and/or family."
          }, {
            "code": "99348",
            "display": "Home visit for the evaluation and management of an established patient, which requires at least 2 of these 3 key components: An expanded problem focused interval history; An expanded problem focused examination; Medical decision making of low complexity. Counseling and/or coordination of care with other physicians, other qualified health care professionals, or agencies are provided consistent with the nature of the problem(s) and the patient's and/or family's needs. Usually, the presenting problem(s) are of low to moderate severity. Typically, 25 minutes are spent face-to-face with the patient and/or family."
          }, {
            "code": "99349",
            "display": "Home visit for the evaluation and management of an established patient, which requires at least 2 of these 3 key components: A detailed interval history; A detailed examination; Medical decision making of moderate complexity. Counseling and/or coordination of care with other physicians, other qualified health care professionals, or agencies are provided consistent with the nature of the problem(s) and the patient's and/or family's needs. Usually, the presenting problem(s) are moderate to high severity. Typically, 40 minutes are spent face-to-face with the patient and/or family."
          }, {
            "code": "99350",
            "display": "Home visit for the evaluation and management of an established patient, which requires at least 2 of these 3 key components: A comprehensive interval history; A comprehensive examination; Medical decision making of moderate to high complexity. Counseling and/or coordination of care with other physicians, other qualified health care professionals, or agencies are provided consistent with the nature of the problem(s) and the patient's and/or family's needs. Usually, the presenting problem(s) are of moderate to high severity. The patient may be unstable or may have developed a significant new problem requiring immediate physician attention. Typically, 60 minutes are spent face-to-face with the patient and/or family."
          } ]
        }, {
          "system": "http://snomed.info/sct",
          "version": "2018-03",
          "concept": [ {
            "code": "185460008",
            "display": "Home visit request by patient (procedure)"
          }, {
            "code": "185462000",
            "display": "Home visit request by relative (procedure)"
          }, {
            "code": "185466002",
            "display": "Home visit for urgent condition (procedure)"
          }, {
            "code": "185467006",
            "display": "Home visit for acute condition (procedure)"
          }, {
            "code": "185468001",
            "display": "Home visit for chronic condition (procedure)"
          }, {
            "code": "185470005",
            "display": "Home visit elderly assessment (procedure)"
          }, {
            "code": "225929007",
            "display": "Joint home visit (procedure)"
          }, {
            "code": "315205008",
            "display": "Bank holiday home visit (procedure)"
          }, {
            "code": "439708006",
            "display": "Home visit (procedure)"
          }, {
            "code": "698704008",
            "display": "Home visit for rheumatology service (procedure)"
          }, {
            "code": "704126008",
            "display": "Home visit for anticoagulant drug monitoring (procedure)"
          } ]
        } ]
      }
    },
    "request": {
      "method": "PUT",
      "url": "ValueSet/2.16.840.1.113883.3.464.1003.101.12.1016"
    }
  }, {
    "resource": {
      "resourceType": "ValueSet",
      "id": "2.16.840.1.113762.1.4.1108.15",
      "url": "http://cts.nlm.nih.gov/fhir/ValueSet/2.16.840.1.113762.1.4.1108.15",
      "identifier": [ {
        "system": "urn:ietf:rfc:3986",
        "value": "2.16.840.1.113762.1.4.1108.15"
      } ],
      "version": "20170504",
      "name": "Hospicecareambulatory",
      "title": "Hospice care ambulatory",
      "status": "active",
      "publisher": "NLM",
      "compose": {
        "include": [ {
          "system": "http://snomed.info/sct",
          "version": "2018-03",
          "concept": [ {
            "code": "385763009",
            "display": "Hospice care (regime/therapy)"
          }, {
            "code": "385765002",
            "display": "Hospice care management (procedure)"
          } ]
        } ]
      }
    },
    "request": {
      "method": "PUT",
      "url": "ValueSet/2.16.840.1.113762.1.4.1108.15"
    }
  }, {
    "resource": {
      "resourceType": "ValueSet",
      "id": "2.16.840.1.113883.3.560.100.2",
      "url": "http://cts.nlm.nih.gov/fhir/ValueSet/2.16.840.1.113883.3.560.100.2",
      "identifier": [ {
        "system": "urn:ietf:rfc:3986",
        "value": "2.16.840.1.113883.3.560.100.2"
      } ],
      "version": "20160331",
      "name": "Female",
      "title": "Female",
      "status": "active",
      "publisher": "NLM",
      "compose": {
        "include": [ {
          "system": "http://hl7.org/fhir/v3/AdministrativeGender",
          "version": "HL7V3.0_2017-07",
          "concept": [ {
            "code": "F",
            "display": "Female"
          } ]
        } ]
      }
    },
    "request": {
      "method": "PUT",
      "url": "ValueSet/2.16.840.1.113883.3.560.100.2"
    }
  }, {
    "resource": {
      "resourceType": "Library",
      "id": "FHIR-ModelInfo-4.0.0",
      "extension": [ {
        "url": "http://hl7.org/fhir/us/cqfmeasures/StructureDefinition/cqfm-softwaresystem",
        "valueReference": {
          "reference": "#cqf-tooling"
        }
      } ],
      "url": "http://hl7.org/fhir/Library/FHIR-ModelInfo",
      "identifier": [ {
        "use": "official",
        "system": "http://example.org/fhir/cqi/ecqm/Library/Identifier",
        "value": "FHIR"
      } ],
      "version": "4.0.0",
      "name": "FHIR-ModelInfo",
      "title": "FHIR Model Definition",
      "status": "active",
      "type": {
        "coding": [ {
          "system": "http://terminology.hl7.org/CodeSystem/library-type",
          "code": "model-definition"
        } ]
      },
      "date": "2019-08-08",
      "publisher": "Health Level 7 International - Clinical Quality Information Work Group",
      "contact": [ {
        "telecom": [ {
          "system": "url",
          "value": "http://www.hl7.org/Special/committees/cqi/index.cfm"
        } ]
      } ],
      "description": "Model definition for the FHIR R4 (v4.0.0) Model",
      "jurisdiction": [ {
        "coding": [ {
          "system": "http://unstats.un.org/unsd/methods/m49/m49.htm",
          "code": "001"
        } ]
      } ],
      "approvalDate": "2019-08-08",
      "lastReviewDate": "2020-06-19",
      "topic": [ {
        "text": "FHIR"
      } ],
      "content": [ {
        "contentType": "application/xml",
        "url": "https://github.com/cqframework/clinical_quality_language/blob/master/Src/java/quick/src/main/resources/org/hl7/fhir/fhir-modelinfo-4.0.0.xml"
      } ]
    },
    "request": {
      "method": "PUT",
      "url": "Library/FHIR-ModelInfo-4.0.0"
    }
  }, {
    "resource": {
      "resourceType": "Bundle",
      "id": "tests-Patient-bundle",
      "type": "transaction",
      "entry": [ {
        "resource": {
          "resourceType": "Patient",
          "id": "numer-EXM124",
          "meta": {
            "profile": [ "http://hl7.org/fhir/us/core/StructureDefinition/us-core-patient" ]
          },
          "extension": [ {
            "url": "http://hl7.org/fhir/us/core/StructureDefinition/us-core-race",
            "extension": [ {
              "url": "ombCategory",
              "valueCoding": {
                "system": "urn:oid:2.16.840.1.113883.6.238",
                "code": "2028-9",
                "display": "Asian"
              }
            } ]
          }, {
            "url": "http://hl7.org/fhir/us/core/StructureDefinition/us-core-ethnicity",
            "extension": [ {
              "url": "ombCategory",
              "valueCoding": {
                "system": "urn:oid:2.16.840.1.113883.6.238",
                "code": "2135-2",
                "display": "Hispanic or Latino"
              }
            } ]
          } ],
          "identifier": [ {
            "use": "usual",
            "type": {
              "coding": [ {
                "system": "http://terminology.hl7.org/CodeSystem/v2-0203",
                "code": "MR",
                "display": "Medical Record Number"
              } ]
            },
            "system": "http://hospital.smarthealthit.org",
            "value": "999999995"
          } ],
          "name": [ {
            "family": "Brigand",
            "given": [ "Melanie" ]
          } ],
          "gender": "female",
          "birthDate": "1995-01-01"
        },
        "request": {
          "method": "PUT",
          "url": "Patient/numer-EXM124"
        }
      } ]
    },
    "request": {
      "method": "PUT",
      "url": "Bundle/tests-Patient-bundle"
    }
  } ]
}